[
 {
  "stimulus": 0,
  "rt": 712.3117048408211,
  "timestamp": 1468341476.981191,
  "x": 0.0,
  "trial": 33,
  "y": 0.033065042123708886,
  "participant": 0
 },
 {
  "stimulus": 1,
  "rt": 494.589488145245,
  "timestamp": 1468341476.9812,
  "x": 0.02857142857142857,
  "trial": 4,
  "y": 0.004839743185043226,
  "participant": 0
 },
 {
  "stimulus": 2,
  "rt": 431.101076431186,
  "timestamp": 1468341476.981202,
  "x": 0.05714285714285714,
  "trial": 12,
  "y": 0.006986648209642725,
  "participant": 0
 },
 {
  "stimulus": 3,
  "rt": 606.3456326712774,
  "timestamp": 1468341476.981204,
  "x": 0.08571428571428572,
  "trial": 15,
  "y": 0.005400622664814227,
  "participant": 0
 },
 {
  "stimulus": 4,
  "rt": 919.6319125813553,
  "timestamp": 1468341476.981205,
  "x": 0.11428571428571428,
  "trial": 24,
  "y": 0.04780064765962551,
  "participant": 0
 },
 {
  "stimulus": 5,
  "rt": 631.0562139554927,
  "timestamp": 1468341476.981206,
  "x": 0.14285714285714285,
  "trial": 35,
  "y": 0.002806610294986636,
  "participant": 0
 },
 {
  "stimulus": 6,
  "rt": 715.6934210799593,
  "timestamp": 1468341476.981207,
  "x": 0.17142857142857143,
  "trial": 34,
  "y": 0.17640411301262054,
  "participant": 0
 },
 {
  "stimulus": 7,
  "rt": 560.9009351714434,
  "timestamp": 1468341476.981208,
  "x": 0.19999999999999998,
  "trial": 26,
  "y": 0.022727122023387707,
  "participant": 0
 },
 {
  "stimulus": 8,
  "rt": 999.047579650018,
  "timestamp": 1468341476.98121,
  "x": 0.22857142857142856,
  "trial": 8,
  "y": 0.08353588453128474,
  "participant": 0
 },
 {
  "stimulus": 9,
  "rt": 794.4471705128335,
  "timestamp": 1468341476.981211,
  "x": 0.2571428571428571,
  "trial": 2,
  "y": 0.06428757555576525,
  "participant": 0
 },
 {
  "stimulus": 10,
  "rt": 487.01733458548074,
  "timestamp": 1468341476.981212,
  "x": 0.2857142857142857,
  "trial": 9,
  "y": 0.3360941081391441,
  "participant": 0
 },
 {
  "stimulus": 11,
  "rt": 711.0483763367428,
  "timestamp": 1468341476.981213,
  "x": 0.3142857142857143,
  "trial": 28,
  "y": 0.019506972539044303,
  "participant": 0
 },
 {
  "stimulus": 12,
  "rt": 633.6650027618454,
  "timestamp": 1468341476.981215,
  "x": 0.34285714285714286,
  "trial": 20,
  "y": 0.1308065980963307,
  "participant": 0
 },
 {
  "stimulus": 13,
  "rt": 897.1061400774722,
  "timestamp": 1468341476.981216,
  "x": 0.37142857142857144,
  "trial": 19,
  "y": 0.15845502752540425,
  "participant": 0
 },
 {
  "stimulus": 14,
  "rt": 417.7516019002376,
  "timestamp": 1468341476.981217,
  "x": 0.39999999999999997,
  "trial": 31,
  "y": 0.5333925807909755,
  "participant": 0
 },
 {
  "stimulus": 15,
  "rt": 296.7836482033652,
  "timestamp": 1468341476.981218,
  "x": 0.42857142857142855,
  "trial": 7,
  "y": 0.1401340570980734,
  "participant": 0
 },
 {
  "stimulus": 16,
  "rt": 324.4323994364219,
  "timestamp": 1468341476.98122,
  "x": 0.45714285714285713,
  "trial": 27,
  "y": 0.3541150260971421,
  "participant": 0
 },
 {
  "stimulus": 17,
  "rt": 512.6835649208095,
  "timestamp": 1468341476.981221,
  "x": 0.4857142857142857,
  "trial": 21,
  "y": 0.2648880414056087,
  "participant": 0
 },
 {
  "stimulus": 18,
  "rt": 871.7417169040058,
  "timestamp": 1468341476.981222,
  "x": 0.5142857142857142,
  "trial": 23,
  "y": 0.546136112605071,
  "participant": 0
 },
 {
  "stimulus": 19,
  "rt": 407.4288615859484,
  "timestamp": 1468341476.981223,
  "x": 0.5428571428571428,
  "trial": 29,
  "y": 0.7332914296686296,
  "participant": 0
 },
 {
  "stimulus": 20,
  "rt": 717.3645745351712,
  "timestamp": 1468341476.981225,
  "x": 0.5714285714285714,
  "trial": 5,
  "y": 0.4046002555746215,
  "participant": 0
 },
 {
  "stimulus": 21,
  "rt": 703.0666592882991,
  "timestamp": 1468341476.981226,
  "x": 0.6,
  "trial": 17,
  "y": 0.895174697189362,
  "participant": 0
 },
 {
  "stimulus": 22,
  "rt": 539.7899747617967,
  "timestamp": 1468341476.981227,
  "x": 0.6285714285714286,
  "trial": 22,
  "y": 0.8991036895508879,
  "participant": 0
 },
 {
  "stimulus": 23,
  "rt": 215.04355074645142,
  "timestamp": 1468341476.981228,
  "x": 0.6571428571428571,
  "trial": 11,
  "y": 0.8883426680019045,
  "participant": 0
 },
 {
  "stimulus": 24,
  "rt": 790.0003991253111,
  "timestamp": 1468341476.981229,
  "x": 0.6857142857142857,
  "trial": 16,
  "y": 0.9403635059721835,
  "participant": 0
 },
 {
  "stimulus": 25,
  "rt": 430.0923254469459,
  "timestamp": 1468341476.981231,
  "x": 0.7142857142857143,
  "trial": 6,
  "y": 0.8113994648701731,
  "participant": 0
 },
 {
  "stimulus": 26,
  "rt": 510.33685256190955,
  "timestamp": 1468341476.981232,
  "x": 0.7428571428571429,
  "trial": 30,
  "y": 0.909346462070155,
  "participant": 0
 },
 {
  "stimulus": 27,
  "rt": 508.08765003834384,
  "timestamp": 1468341476.981233,
  "x": 0.7714285714285714,
  "trial": 18,
  "y": 0.8555135598465787,
  "participant": 0
 },
 {
  "stimulus": 28,
  "rt": 743.6950902758754,
  "timestamp": 1468341476.981234,
  "x": 0.7999999999999999,
  "trial": 25,
  "y": 0.938895112699525,
  "participant": 0
 },
 {
  "stimulus": 29,
  "rt": 253.23807607035428,
  "timestamp": 1468341476.981236,
  "x": 0.8285714285714285,
  "trial": 3,
  "y": 0.9784600319739225,
  "participant": 0
 },
 {
  "stimulus": 30,
  "rt": 626.1444565281014,
  "timestamp": 1468341476.981237,
  "x": 0.8571428571428571,
  "trial": 1,
  "y": 0.9468371776623492,
  "participant": 0
 },
 {
  "stimulus": 31,
  "rt": 194.43263913453032,
  "timestamp": 1468341476.981238,
  "x": 0.8857142857142857,
  "trial": 32,
  "y": 0.9695394668078157,
  "participant": 0
 },
 {
  "stimulus": 32,
  "rt": 1002.8436374163937,
  "timestamp": 1468341476.981239,
  "x": 0.9142857142857143,
  "trial": 14,
  "y": 0.9694002114501608,
  "participant": 0
 },
 {
  "stimulus": 33,
  "rt": 671.3803171768004,
  "timestamp": 1468341476.98124,
  "x": 0.9428571428571428,
  "trial": 13,
  "y": 0.9729689453256426,
  "participant": 0
 },
 {
  "stimulus": 34,
  "rt": 505.841489242359,
  "timestamp": 1468341476.981242,
  "x": 0.9714285714285714,
  "trial": 0,
  "y": 0.9827584227069741,
  "participant": 0
 },
 {
  "stimulus": 35,
  "rt": 312.64724694528536,
  "timestamp": 1468341476.981243,
  "x": 1.0,
  "trial": 10,
  "y": 0.9932224259257667,
  "participant": 0
 },
 {
  "stimulus": 0,
  "rt": 698.5994096265035,
  "timestamp": 1468341476.981245,
  "x": 0.0,
  "trial": 32,
  "y": 0.002199528412471585,
  "participant": 1
 },
 {
  "stimulus": 1,
  "rt": 504.99672987686375,
  "timestamp": 1468341476.981246,
  "x": 0.02857142857142857,
  "trial": 11,
  "y": 0.011207846737833255,
  "participant": 1
 },
 {
  "stimulus": 2,
  "rt": 426.2521866238907,
  "timestamp": 1468341476.981247,
  "x": 0.05714285714285714,
  "trial": 2,
  "y": 0.05903534466560621,
  "participant": 1
 },
 {
  "stimulus": 3,
  "rt": 621.9838384353317,
  "timestamp": 1468341476.981249,
  "x": 0.08571428571428572,
  "trial": 34,
  "y": 0.03227006665468076,
  "participant": 1
 },
 {
  "stimulus": 4,
  "rt": 905.1964693555293,
  "timestamp": 1468341476.98125,
  "x": 0.11428571428571428,
  "trial": 7,
  "y": 0.017141235986462958,
  "participant": 1
 },
 {
  "stimulus": 5,
  "rt": 647.6690377084178,
  "timestamp": 1468341476.981251,
  "x": 0.14285714285714285,
  "trial": 6,
  "y": 0.011440857459539202,
  "participant": 1
 },
 {
  "stimulus": 6,
  "rt": 721.5266111195671,
  "timestamp": 1468341476.981252,
  "x": 0.17142857142857143,
  "trial": 9,
  "y": 0.01741469833518479,
  "participant": 1
 },
 {
  "stimulus": 7,
  "rt": 575.9584130625176,
  "timestamp": 1468341476.981253,
  "x": 0.19999999999999998,
  "trial": 20,
  "y": 0.2128978775669974,
  "participant": 1
 },
 {
  "stimulus": 8,
  "rt": 993.1855850978591,
  "timestamp": 1468341476.981255,
  "x": 0.22857142857142856,
  "trial": 12,
  "y": 0.06516314619074838,
  "participant": 1
 },
 {
  "stimulus": 9,
  "rt": 793.397721784808,
  "timestamp": 1468341476.981256,
  "x": 0.2571428571428571,
  "trial": 27,
  "y": 0.04455013640621905,
  "participant": 1
 },
 {
  "stimulus": 10,
  "rt": 493.88901078749507,
  "timestamp": 1468341476.981257,
  "x": 0.2857142857142857,
  "trial": 26,
  "y": 0.12434179442369309,
  "participant": 1
 },
 {
  "stimulus": 11,
  "rt": 713.8273787614072,
  "timestamp": 1468341476.981258,
  "x": 0.3142857142857143,
  "trial": 22,
  "y": 0.5604804784540252,
  "participant": 1
 },
 {
  "stimulus": 12,
  "rt": 665.6459601383797,
  "timestamp": 1468341476.98126,
  "x": 0.34285714285714286,
  "trial": 5,
  "y": 0.18980624732641513,
  "participant": 1
 },
 {
  "stimulus": 13,
  "rt": 898.159635756735,
  "timestamp": 1468341476.981261,
  "x": 0.37142857142857144,
  "trial": 1,
  "y": 0.3388302935135292,
  "participant": 1
 },
 {
  "stimulus": 14,
  "rt": 414.2119395731624,
  "timestamp": 1468341476.981262,
  "x": 0.39999999999999997,
  "trial": 14,
  "y": 0.331849991040283,
  "participant": 1
 },
 {
  "stimulus": 15,
  "rt": 280.7556486580038,
  "timestamp": 1468341476.981263,
  "x": 0.42857142857142855,
  "trial": 30,
  "y": 0.2560624828253548,
  "participant": 1
 },
 {
  "stimulus": 16,
  "rt": 379.1453796038215,
  "timestamp": 1468341476.981264,
  "x": 0.45714285714285713,
  "trial": 35,
  "y": 0.1720611123234383,
  "participant": 1
 },
 {
  "stimulus": 17,
  "rt": 511.9038791854426,
  "timestamp": 1468341476.981266,
  "x": 0.4857142857142857,
  "trial": 19,
  "y": 0.37937547271598093,
  "participant": 1
 },
 {
  "stimulus": 18,
  "rt": 899.9024456360579,
  "timestamp": 1468341476.981267,
  "x": 0.5142857142857142,
  "trial": 15,
  "y": 0.4834967243589489,
  "participant": 1
 },
 {
  "stimulus": 19,
  "rt": 414.98505087677535,
  "timestamp": 1468341476.981268,
  "x": 0.5428571428571428,
  "trial": 4,
  "y": 0.7340355133564294,
  "participant": 1
 },
 {
  "stimulus": 20,
  "rt": 682.4580506000035,
  "timestamp": 1468341476.981269,
  "x": 0.5714285714285714,
  "trial": 24,
  "y": 0.8253853940913966,
  "participant": 1
 },
 {
  "stimulus": 21,
  "rt": 710.7513435738231,
  "timestamp": 1468341476.98127,
  "x": 0.6,
  "trial": 17,
  "y": 0.8733713534344336,
  "participant": 1
 },
 {
  "stimulus": 22,
  "rt": 516.8165254456081,
  "timestamp": 1468341476.981272,
  "x": 0.6285714285714286,
  "trial": 31,
  "y": 0.8279690840416015,
  "participant": 1
 },
 {
  "stimulus": 23,
  "rt": 220.01810199062325,
  "timestamp": 1468341476.981273,
  "x": 0.6571428571428571,
  "trial": 0,
  "y": 0.9210405573984309,
  "participant": 1
 },
 {
  "stimulus": 24,
  "rt": 789.4769682469,
  "timestamp": 1468341476.981274,
  "x": 0.6857142857142857,
  "trial": 18,
  "y": 0.7507740668180272,
  "participant": 1
 },
 {
  "stimulus": 25,
  "rt": 446.28148101492985,
  "timestamp": 1468341476.981275,
  "x": 0.7142857142857143,
  "trial": 23,
  "y": 0.9675706728914335,
  "participant": 1
 },
 {
  "stimulus": 26,
  "rt": 545.8626251458396,
  "timestamp": 1468341476.981276,
  "x": 0.7428571428571429,
  "trial": 21,
  "y": 0.9498602732012472,
  "participant": 1
 },
 {
  "stimulus": 27,
  "rt": 480.4826279437256,
  "timestamp": 1468341476.981278,
  "x": 0.7714285714285714,
  "trial": 10,
  "y": 0.9180537863826087,
  "participant": 1
 },
 {
  "stimulus": 28,
  "rt": 697.1087508802188,
  "timestamp": 1468341476.981279,
  "x": 0.7999999999999999,
  "trial": 13,
  "y": 0.9703593042607587,
  "participant": 1
 },
 {
  "stimulus": 29,
  "rt": 283.3520744482447,
  "timestamp": 1468341476.98128,
  "x": 0.8285714285714285,
  "trial": 28,
  "y": 0.9612141812101709,
  "participant": 1
 },
 {
  "stimulus": 30,
  "rt": 644.5201538803882,
  "timestamp": 1468341476.981281,
  "x": 0.8571428571428571,
  "trial": 33,
  "y": 0.9910139742473419,
  "participant": 1
 },
 {
  "stimulus": 31,
  "rt": 203.683584073333,
  "timestamp": 1468341476.981282,
  "x": 0.8857142857142857,
  "trial": 16,
  "y": 0.9953994107144233,
  "participant": 1
 },
 {
  "stimulus": 32,
  "rt": 992.8564313497135,
  "timestamp": 1468341476.981284,
  "x": 0.9142857142857143,
  "trial": 8,
  "y": 0.9982183507303528,
  "participant": 1
 },
 {
  "stimulus": 33,
  "rt": 689.9446382205689,
  "timestamp": 1468341476.981285,
  "x": 0.9428571428571428,
  "trial": 25,
  "y": 0.9540023178149776,
  "participant": 1
 },
 {
  "stimulus": 34,
  "rt": 536.6571270874347,
  "timestamp": 1468341476.981286,
  "x": 0.9714285714285714,
  "trial": 29,
  "y": 0.9633912351868655,
  "participant": 1
 },
 {
  "stimulus": 35,
  "rt": 315.39654003767475,
  "timestamp": 1468341476.981287,
  "x": 1.0,
  "trial": 3,
  "y": 0.988964424149149,
  "participant": 1
 },
 {
  "stimulus": 0,
  "rt": 728.9538567783299,
  "timestamp": 1468341476.981289,
  "x": 0.0,
  "trial": 8,
  "y": 0.007845311564975137,
  "participant": 2
 },
 {
  "stimulus": 1,
  "rt": 493.77357172318034,
  "timestamp": 1468341476.98129,
  "x": 0.02857142857142857,
  "trial": 6,
  "y": 0.021080173470275833,
  "participant": 2
 },
 {
  "stimulus": 2,
  "rt": 414.175178801292,
  "timestamp": 1468341476.981292,
  "x": 0.05714285714285714,
  "trial": 19,
  "y": 0.01609633346666996,
  "participant": 2
 },
 {
  "stimulus": 3,
  "rt": 612.6773480924784,
  "timestamp": 1468341476.981293,
  "x": 0.08571428571428572,
  "trial": 0,
  "y": 0.002097188272769724,
  "participant": 2
 },
 {
  "stimulus": 4,
  "rt": 895.1073347714331,
  "timestamp": 1468341476.981294,
  "x": 0.11428571428571428,
  "trial": 13,
  "y": 0.01531714433174247,
  "participant": 2
 },
 {
  "stimulus": 5,
  "rt": 636.4079085670863,
  "timestamp": 1468341476.981295,
  "x": 0.14285714285714285,
  "trial": 23,
  "y": 0.060457414057665804,
  "participant": 2
 },
 {
  "stimulus": 6,
  "rt": 742.2256272251662,
  "timestamp": 1468341476.981296,
  "x": 0.17142857142857143,
  "trial": 28,
  "y": 0.04497548055058297,
  "participant": 2
 },
 {
  "stimulus": 7,
  "rt": 529.244445221332,
  "timestamp": 1468341476.981298,
  "x": 0.19999999999999998,
  "trial": 35,
  "y": 0.0963905722323729,
  "participant": 2
 },
 {
  "stimulus": 8,
  "rt": 979.0888885215587,
  "timestamp": 1468341476.981299,
  "x": 0.22857142857142856,
  "trial": 9,
  "y": 0.05037300486842441,
  "participant": 2
 },
 {
  "stimulus": 9,
  "rt": 790.0710898687709,
  "timestamp": 1468341476.9813,
  "x": 0.2571428571428571,
  "trial": 29,
  "y": 0.06727451151025761,
  "participant": 2
 },
 {
  "stimulus": 10,
  "rt": 479.3883734867836,
  "timestamp": 1468341476.981301,
  "x": 0.2857142857142857,
  "trial": 5,
  "y": 0.12386849163636167,
  "participant": 2
 },
 {
  "stimulus": 11,
  "rt": 706.6321741188957,
  "timestamp": 1468341476.981302,
  "x": 0.3142857142857143,
  "trial": 1,
  "y": 0.19044963534791456,
  "participant": 2
 },
 {
  "stimulus": 12,
  "rt": 609.3490563326549,
  "timestamp": 1468341476.981304,
  "x": 0.34285714285714286,
  "trial": 26,
  "y": 0.20211480376521038,
  "participant": 2
 },
 {
  "stimulus": 13,
  "rt": 899.2123808134039,
  "timestamp": 1468341476.981305,
  "x": 0.37142857142857144,
  "trial": 34,
  "y": 0.23745097146474867,
  "participant": 2
 },
 {
  "stimulus": 14,
  "rt": 405.88134438847305,
  "timestamp": 1468341476.981306,
  "x": 0.39999999999999997,
  "trial": 17,
  "y": 0.1583358988647448,
  "participant": 2
 },
 {
  "stimulus": 15,
  "rt": 281.2835048698922,
  "timestamp": 1468341476.981307,
  "x": 0.42857142857142855,
  "trial": 10,
  "y": 0.41660597906151436,
  "participant": 2
 },
 {
  "stimulus": 16,
  "rt": 354.08761978001087,
  "timestamp": 1468341476.981308,
  "x": 0.45714285714285713,
  "trial": 21,
  "y": 0.4239081860948292,
  "participant": 2
 },
 {
  "stimulus": 17,
  "rt": 500.6217360782811,
  "timestamp": 1468341476.981309,
  "x": 0.4857142857142857,
  "trial": 27,
  "y": 0.7284211306451224,
  "participant": 2
 },
 {
  "stimulus": 18,
  "rt": 870.2125135827096,
  "timestamp": 1468341476.981311,
  "x": 0.5142857142857142,
  "trial": 7,
  "y": 0.792781691737201,
  "participant": 2
 },
 {
  "stimulus": 19,
  "rt": 420.2010532047474,
  "timestamp": 1468341476.981312,
  "x": 0.5428571428571428,
  "trial": 3,
  "y": 0.648790704457067,
  "participant": 2
 },
 {
  "stimulus": 20,
  "rt": 691.8278103960147,
  "timestamp": 1468341476.981313,
  "x": 0.5714285714285714,
  "trial": 11,
  "y": 0.5839477762106493,
  "participant": 2
 },
 {
  "stimulus": 21,
  "rt": 687.1794253973279,
  "timestamp": 1468341476.981314,
  "x": 0.6,
  "trial": 15,
  "y": 0.5893477318331123,
  "participant": 2
 },
 {
  "stimulus": 22,
  "rt": 522.8018413063477,
  "timestamp": 1468341476.981315,
  "x": 0.6285714285714286,
  "trial": 16,
  "y": 0.8467336130052304,
  "participant": 2
 },
 {
  "stimulus": 23,
  "rt": 243.73792667330846,
  "timestamp": 1468341476.981317,
  "x": 0.6571428571428571,
  "trial": 22,
  "y": 0.8387245591173205,
  "participant": 2
 },
 {
  "stimulus": 24,
  "rt": 821.4965316152612,
  "timestamp": 1468341476.981318,
  "x": 0.6857142857142857,
  "trial": 25,
  "y": 0.8195481519164869,
  "participant": 2
 },
 {
  "stimulus": 25,
  "rt": 456.19142872928325,
  "timestamp": 1468341476.98132,
  "x": 0.7142857142857143,
  "trial": 12,
  "y": 0.8990264632017662,
  "participant": 2
 },
 {
  "stimulus": 26,
  "rt": 503.41160215733214,
  "timestamp": 1468341476.981321,
  "x": 0.7428571428571429,
  "trial": 18,
  "y": 0.8591890277329997,
  "participant": 2
 },
 {
  "stimulus": 27,
  "rt": 485.69691443629836,
  "timestamp": 1468341476.981323,
  "x": 0.7714285714285714,
  "trial": 14,
  "y": 0.9680872854451492,
  "participant": 2
 },
 {
  "stimulus": 28,
  "rt": 731.6686712178827,
  "timestamp": 1468341476.981324,
  "x": 0.7999999999999999,
  "trial": 20,
  "y": 0.9277661835289852,
  "participant": 2
 },
 {
  "stimulus": 29,
  "rt": 275.8363165900384,
  "timestamp": 1468341476.981325,
  "x": 0.8285714285714285,
  "trial": 2,
  "y": 0.9891235784440201,
  "participant": 2
 },
 {
  "stimulus": 30,
  "rt": 638.3112054090952,
  "timestamp": 1468341476.981326,
  "x": 0.8571428571428571,
  "trial": 32,
  "y": 0.9815654163325279,
  "participant": 2
 },
 {
  "stimulus": 31,
  "rt": 238.73968654942024,
  "timestamp": 1468341476.981327,
  "x": 0.8857142857142857,
  "trial": 24,
  "y": 0.9884644759230229,
  "participant": 2
 },
 {
  "stimulus": 32,
  "rt": 1000.7371334959396,
  "timestamp": 1468341476.981329,
  "x": 0.9142857142857143,
  "trial": 31,
  "y": 0.9546937361917086,
  "participant": 2
 },
 {
  "stimulus": 33,
  "rt": 698.6748055455549,
  "timestamp": 1468341476.98133,
  "x": 0.9428571428571428,
  "trial": 30,
  "y": 0.9900280177877142,
  "participant": 2
 },
 {
  "stimulus": 34,
  "rt": 502.21264141117007,
  "timestamp": 1468341476.981331,
  "x": 0.9714285714285714,
  "trial": 33,
  "y": 0.99574265095683,
  "participant": 2
 },
 {
  "stimulus": 35,
  "rt": 306.49779565359444,
  "timestamp": 1468341476.981332,
  "x": 1.0,
  "trial": 4,
  "y": 0.9828135711670875,
  "participant": 2
 },
 {
  "stimulus": 0,
  "rt": 697.7067931489673,
  "timestamp": 1468341476.981334,
  "x": 0.0,
  "trial": 13,
  "y": 0.005136577276474907,
  "participant": 3
 },
 {
  "stimulus": 1,
  "rt": 497.5958865332316,
  "timestamp": 1468341476.981335,
  "x": 0.02857142857142857,
  "trial": 31,
  "y": 0.00917849487843981,
  "participant": 3
 },
 {
  "stimulus": 2,
  "rt": 401.91971295467124,
  "timestamp": 1468341476.981336,
  "x": 0.05714285714285714,
  "trial": 22,
  "y": 0.003013338626425127,
  "participant": 3
 },
 {
  "stimulus": 3,
  "rt": 598.2342151870964,
  "timestamp": 1468341476.981338,
  "x": 0.08571428571428572,
  "trial": 27,
  "y": 0.021296255009450964,
  "participant": 3
 },
 {
  "stimulus": 4,
  "rt": 902.3425540044234,
  "timestamp": 1468341476.981339,
  "x": 0.11428571428571428,
  "trial": 19,
  "y": 0.04693219231927798,
  "participant": 3
 },
 {
  "stimulus": 5,
  "rt": 666.0768253931097,
  "timestamp": 1468341476.98134,
  "x": 0.14285714285714285,
  "trial": 29,
  "y": 0.011763221140741267,
  "participant": 3
 },
 {
  "stimulus": 6,
  "rt": 723.5858185349535,
  "timestamp": 1468341476.981341,
  "x": 0.17142857142857143,
  "trial": 26,
  "y": 0.05044219852333506,
  "participant": 3
 },
 {
  "stimulus": 7,
  "rt": 532.4730310381449,
  "timestamp": 1468341476.981342,
  "x": 0.19999999999999998,
  "trial": 5,
  "y": 0.01322564809584552,
  "participant": 3
 },
 {
  "stimulus": 8,
  "rt": 971.1504230165668,
  "timestamp": 1468341476.981344,
  "x": 0.22857142857142856,
  "trial": 18,
  "y": 0.05991850251019887,
  "participant": 3
 },
 {
  "stimulus": 9,
  "rt": 796.7829618268231,
  "timestamp": 1468341476.981345,
  "x": 0.2571428571428571,
  "trial": 33,
  "y": 0.017219492441047993,
  "participant": 3
 },
 {
  "stimulus": 10,
  "rt": 492.14618117516324,
  "timestamp": 1468341476.981346,
  "x": 0.2857142857142857,
  "trial": 10,
  "y": 0.26474711096885273,
  "participant": 3
 },
 {
  "stimulus": 11,
  "rt": 709.3114743466735,
  "timestamp": 1468341476.981347,
  "x": 0.3142857142857143,
  "trial": 15,
  "y": 0.19027222220108408,
  "participant": 3
 },
 {
  "stimulus": 12,
  "rt": 643.5849341229895,
  "timestamp": 1468341476.981348,
  "x": 0.34285714285714286,
  "trial": 17,
  "y": 0.16853503285830648,
  "participant": 3
 },
 {
  "stimulus": 13,
  "rt": 927.5785867893131,
  "timestamp": 1468341476.98135,
  "x": 0.37142857142857144,
  "trial": 12,
  "y": 0.1129580359431516,
  "participant": 3
 },
 {
  "stimulus": 14,
  "rt": 427.2205264578811,
  "timestamp": 1468341476.981351,
  "x": 0.39999999999999997,
  "trial": 35,
  "y": 0.5680147469592336,
  "participant": 3
 },
 {
  "stimulus": 15,
  "rt": 289.95520956191643,
  "timestamp": 1468341476.981352,
  "x": 0.42857142857142855,
  "trial": 32,
  "y": 0.7777869496256765,
  "participant": 3
 },
 {
  "stimulus": 16,
  "rt": 346.44743254535575,
  "timestamp": 1468341476.981353,
  "x": 0.45714285714285713,
  "trial": 3,
  "y": 0.09224275125421516,
  "participant": 3
 },
 {
  "stimulus": 17,
  "rt": 500.68151854850674,
  "timestamp": 1468341476.981354,
  "x": 0.4857142857142857,
  "trial": 30,
  "y": 0.7490039184823454,
  "participant": 3
 },
 {
  "stimulus": 18,
  "rt": 853.48481057677,
  "timestamp": 1468341476.981356,
  "x": 0.5142857142857142,
  "trial": 7,
  "y": 0.854520821517975,
  "participant": 3
 },
 {
  "stimulus": 19,
  "rt": 425.58963515879134,
  "timestamp": 1468341476.981357,
  "x": 0.5428571428571428,
  "trial": 2,
  "y": 0.6827812920282527,
  "participant": 3
 },
 {
  "stimulus": 20,
  "rt": 695.8951032157995,
  "timestamp": 1468341476.981358,
  "x": 0.5714285714285714,
  "trial": 8,
  "y": 0.3810763156056268,
  "participant": 3
 },
 {
  "stimulus": 21,
  "rt": 701.0785884472463,
  "timestamp": 1468341476.981361,
  "x": 0.6,
  "trial": 20,
  "y": 0.8656863957561151,
  "participant": 3
 },
 {
  "stimulus": 22,
  "rt": 533.7873928960036,
  "timestamp": 1468341476.981363,
  "x": 0.6285714285714286,
  "trial": 1,
  "y": 0.7511572756399751,
  "participant": 3
 },
 {
  "stimulus": 23,
  "rt": 228.73787762879596,
  "timestamp": 1468341476.981364,
  "x": 0.6571428571428571,
  "trial": 21,
  "y": 0.7246224995315329,
  "participant": 3
 },
 {
  "stimulus": 24,
  "rt": 810.778274523333,
  "timestamp": 1468341476.981365,
  "x": 0.6857142857142857,
  "trial": 9,
  "y": 0.6518281381156712,
  "participant": 3
 },
 {
  "stimulus": 25,
  "rt": 438.23885326161,
  "timestamp": 1468341476.981366,
  "x": 0.7142857142857143,
  "trial": 4,
  "y": 0.9366357497099408,
  "participant": 3
 },
 {
  "stimulus": 26,
  "rt": 540.7154800018634,
  "timestamp": 1468341476.981367,
  "x": 0.7428571428571429,
  "trial": 28,
  "y": 0.9616309016766544,
  "participant": 3
 },
 {
  "stimulus": 27,
  "rt": 504.26861567760545,
  "timestamp": 1468341476.981369,
  "x": 0.7714285714285714,
  "trial": 6,
  "y": 0.8900013595957398,
  "participant": 3
 },
 {
  "stimulus": 28,
  "rt": 735.5537760310681,
  "timestamp": 1468341476.98137,
  "x": 0.7999999999999999,
  "trial": 11,
  "y": 0.971267592198721,
  "participant": 3
 },
 {
  "stimulus": 29,
  "rt": 265.0583777859427,
  "timestamp": 1468341476.981371,
  "x": 0.8285714285714285,
  "trial": 25,
  "y": 0.8948598504061097,
  "participant": 3
 },
 {
  "stimulus": 30,
  "rt": 661.559097078491,
  "timestamp": 1468341476.981372,
  "x": 0.8571428571428571,
  "trial": 14,
  "y": 0.9875473329060276,
  "participant": 3
 },
 {
  "stimulus": 31,
  "rt": 181.49607700071712,
  "timestamp": 1468341476.981373,
  "x": 0.8857142857142857,
  "trial": 16,
  "y": 0.9802317160424251,
  "participant": 3
 },
 {
  "stimulus": 32,
  "rt": 978.6188122910214,
  "timestamp": 1468341476.981375,
  "x": 0.9142857142857143,
  "trial": 34,
  "y": 0.9812252169704003,
  "participant": 3
 },
 {
  "stimulus": 33,
  "rt": 674.2690806442995,
  "timestamp": 1468341476.981376,
  "x": 0.9428571428571428,
  "trial": 0,
  "y": 0.9869628002162253,
  "participant": 3
 },
 {
  "stimulus": 34,
  "rt": 484.8523756188141,
  "timestamp": 1468341476.981377,
  "x": 0.9714285714285714,
  "trial": 23,
  "y": 0.9962534708823448,
  "participant": 3
 },
 {
  "stimulus": 35,
  "rt": 305.7464257465956,
  "timestamp": 1468341476.981378,
  "x": 1.0,
  "trial": 24,
  "y": 0.996828618750507,
  "participant": 3
 },
 {
  "stimulus": 0,
  "rt": 687.4132106272142,
  "timestamp": 1468341476.98138,
  "x": 0.0,
  "trial": 29,
  "y": 0.011311776622013252,
  "participant": 4
 },
 {
  "stimulus": 1,
  "rt": 501.5418429947102,
  "timestamp": 1468341476.981381,
  "x": 0.02857142857142857,
  "trial": 10,
  "y": 0.01018517645403407,
  "participant": 4
 },
 {
  "stimulus": 2,
  "rt": 403.55821782954337,
  "timestamp": 1468341476.981382,
  "x": 0.05714285714285714,
  "trial": 13,
  "y": 0.012732914145232978,
  "participant": 4
 },
 {
  "stimulus": 3,
  "rt": 611.9516813917152,
  "timestamp": 1468341476.981384,
  "x": 0.08571428571428572,
  "trial": 12,
  "y": 0.02862375574737047,
  "participant": 4
 },
 {
  "stimulus": 4,
  "rt": 905.5266751500405,
  "timestamp": 1468341476.981385,
  "x": 0.11428571428571428,
  "trial": 2,
  "y": 0.02596625096451953,
  "participant": 4
 },
 {
  "stimulus": 5,
  "rt": 642.2695896533121,
  "timestamp": 1468341476.981386,
  "x": 0.14285714285714285,
  "trial": 3,
  "y": 0.05270615145440704,
  "participant": 4
 },
 {
  "stimulus": 6,
  "rt": 711.9304749801794,
  "timestamp": 1468341476.981387,
  "x": 0.17142857142857143,
  "trial": 31,
  "y": 0.026705139036774666,
  "participant": 4
 },
 {
  "stimulus": 7,
  "rt": 544.934152182557,
  "timestamp": 1468341476.981389,
  "x": 0.19999999999999998,
  "trial": 14,
  "y": 0.004342998716177275,
  "participant": 4
 },
 {
  "stimulus": 8,
  "rt": 981.4274097610457,
  "timestamp": 1468341476.98139,
  "x": 0.22857142857142856,
  "trial": 35,
  "y": 0.15769742827184124,
  "participant": 4
 },
 {
  "stimulus": 9,
  "rt": 792.5171776121317,
  "timestamp": 1468341476.981391,
  "x": 0.2571428571428571,
  "trial": 16,
  "y": 0.43989411854576066,
  "participant": 4
 },
 {
  "stimulus": 10,
  "rt": 491.89259919464934,
  "timestamp": 1468341476.981392,
  "x": 0.2857142857142857,
  "trial": 22,
  "y": 0.15427041051611892,
  "participant": 4
 },
 {
  "stimulus": 11,
  "rt": 713.3936572901194,
  "timestamp": 1468341476.981393,
  "x": 0.3142857142857143,
  "trial": 15,
  "y": 0.12375975376027801,
  "participant": 4
 },
 {
  "stimulus": 12,
  "rt": 653.3063915829686,
  "timestamp": 1468341476.981395,
  "x": 0.34285714285714286,
  "trial": 7,
  "y": 0.1534397600424574,
  "participant": 4
 },
 {
  "stimulus": 13,
  "rt": 904.3982203417693,
  "timestamp": 1468341476.981396,
  "x": 0.37142857142857144,
  "trial": 27,
  "y": 0.19706051692468485,
  "participant": 4
 },
 {
  "stimulus": 14,
  "rt": 409.93176712961684,
  "timestamp": 1468341476.981397,
  "x": 0.39999999999999997,
  "trial": 30,
  "y": 0.272378056176386,
  "participant": 4
 },
 {
  "stimulus": 15,
  "rt": 302.12804432088905,
  "timestamp": 1468341476.981398,
  "x": 0.42857142857142855,
  "trial": 33,
  "y": 0.13748894610376058,
  "participant": 4
 },
 {
  "stimulus": 16,
  "rt": 369.25885294794375,
  "timestamp": 1468341476.9814,
  "x": 0.45714285714285713,
  "trial": 32,
  "y": 0.27975728196091204,
  "participant": 4
 },
 {
  "stimulus": 17,
  "rt": 508.5582477840353,
  "timestamp": 1468341476.981401,
  "x": 0.4857142857142857,
  "trial": 28,
  "y": 0.24234166478771965,
  "participant": 4
 },
 {
  "stimulus": 18,
  "rt": 877.4539000621745,
  "timestamp": 1468341476.981402,
  "x": 0.5142857142857142,
  "trial": 21,
  "y": 0.5966813571579244,
  "participant": 4
 },
 {
  "stimulus": 19,
  "rt": 427.5635855458675,
  "timestamp": 1468341476.981403,
  "x": 0.5428571428571428,
  "trial": 5,
  "y": 0.5329348120614311,
  "participant": 4
 },
 {
  "stimulus": 20,
  "rt": 690.3900580031523,
  "timestamp": 1468341476.981404,
  "x": 0.5714285714285714,
  "trial": 8,
  "y": 0.7702099436640035,
  "participant": 4
 },
 {
  "stimulus": 21,
  "rt": 710.0295807332872,
  "timestamp": 1468341476.981406,
  "x": 0.6,
  "trial": 23,
  "y": 0.6953595540442868,
  "participant": 4
 },
 {
  "stimulus": 22,
  "rt": 509.842209895476,
  "timestamp": 1468341476.981407,
  "x": 0.6285714285714286,
  "trial": 9,
  "y": 0.9065355819794626,
  "participant": 4
 },
 {
  "stimulus": 23,
  "rt": 239.2704304574314,
  "timestamp": 1468341476.981408,
  "x": 0.6571428571428571,
  "trial": 11,
  "y": 0.8563085497935314,
  "participant": 4
 },
 {
  "stimulus": 24,
  "rt": 796.007735133191,
  "timestamp": 1468341476.981409,
  "x": 0.6857142857142857,
  "trial": 24,
  "y": 0.9828396178280866,
  "participant": 4
 },
 {
  "stimulus": 25,
  "rt": 451.03349429228217,
  "timestamp": 1468341476.98141,
  "x": 0.7142857142857143,
  "trial": 0,
  "y": 0.561313914166571,
  "participant": 4
 },
 {
  "stimulus": 26,
  "rt": 496.88273531628363,
  "timestamp": 1468341476.981412,
  "x": 0.7428571428571429,
  "trial": 34,
  "y": 0.8559010725730736,
  "participant": 4
 },
 {
  "stimulus": 27,
  "rt": 504.59633170284883,
  "timestamp": 1468341476.981413,
  "x": 0.7714285714285714,
  "trial": 6,
  "y": 0.9738083179966985,
  "participant": 4
 },
 {
  "stimulus": 28,
  "rt": 729.4379887800527,
  "timestamp": 1468341476.981414,
  "x": 0.7999999999999999,
  "trial": 19,
  "y": 0.9960430845009498,
  "participant": 4
 },
 {
  "stimulus": 29,
  "rt": 269.10142267055846,
  "timestamp": 1468341476.981415,
  "x": 0.8285714285714285,
  "trial": 17,
  "y": 0.9542214227597239,
  "participant": 4
 },
 {
  "stimulus": 30,
  "rt": 629.3349624765585,
  "timestamp": 1468341476.981416,
  "x": 0.8571428571428571,
  "trial": 26,
  "y": 0.9737910951021806,
  "participant": 4
 },
 {
  "stimulus": 31,
  "rt": 196.76227263866983,
  "timestamp": 1468341476.981418,
  "x": 0.8857142857142857,
  "trial": 20,
  "y": 0.9741896045314729,
  "participant": 4
 },
 {
  "stimulus": 32,
  "rt": 980.8904585350127,
  "timestamp": 1468341476.981419,
  "x": 0.9142857142857143,
  "trial": 4,
  "y": 0.9958244057348391,
  "participant": 4
 },
 {
  "stimulus": 33,
  "rt": 675.8506394536765,
  "timestamp": 1468341476.98142,
  "x": 0.9428571428571428,
  "trial": 1,
  "y": 0.9843461938313501,
  "participant": 4
 },
 {
  "stimulus": 34,
  "rt": 524.9397019029373,
  "timestamp": 1468341476.981421,
  "x": 0.9714285714285714,
  "trial": 18,
  "y": 0.9954783911869206,
  "participant": 4
 },
 {
  "stimulus": 35,
  "rt": 318.7308560024605,
  "timestamp": 1468341476.981422,
  "x": 1.0,
  "trial": 25,
  "y": 0.9908081017283095,
  "participant": 4
 },
 {
  "stimulus": 0,
  "rt": 713.3326044269728,
  "timestamp": 1468341476.981424,
  "x": 0.0,
  "trial": 5,
  "y": 0.0018838374808255226,
  "participant": 5
 },
 {
  "stimulus": 1,
  "rt": 510.1633605262676,
  "timestamp": 1468341476.981425,
  "x": 0.02857142857142857,
  "trial": 9,
  "y": 0.012119596015125739,
  "participant": 5
 },
 {
  "stimulus": 2,
  "rt": 395.21312955150944,
  "timestamp": 1468341476.981426,
  "x": 0.05714285714285714,
  "trial": 29,
  "y": 0.019352591901881027,
  "participant": 5
 },
 {
  "stimulus": 3,
  "rt": 618.8040835916039,
  "timestamp": 1468341476.981428,
  "x": 0.08571428571428572,
  "trial": 13,
  "y": 0.05470038096850783,
  "participant": 5
 },
 {
  "stimulus": 4,
  "rt": 922.9449261185333,
  "timestamp": 1468341476.981429,
  "x": 0.11428571428571428,
  "trial": 18,
  "y": 0.01856769343441542,
  "participant": 5
 },
 {
  "stimulus": 5,
  "rt": 666.3896861831455,
  "timestamp": 1468341476.98143,
  "x": 0.14285714285714285,
  "trial": 2,
  "y": 0.014938083084393457,
  "participant": 5
 },
 {
  "stimulus": 6,
  "rt": 725.3220177422946,
  "timestamp": 1468341476.981431,
  "x": 0.17142857142857143,
  "trial": 16,
  "y": 0.06163245057595745,
  "participant": 5
 },
 {
  "stimulus": 7,
  "rt": 533.8246262655384,
  "timestamp": 1468341476.981433,
  "x": 0.19999999999999998,
  "trial": 7,
  "y": 0.059565642695641706,
  "participant": 5
 },
 {
  "stimulus": 8,
  "rt": 962.339321622694,
  "timestamp": 1468341476.981434,
  "x": 0.22857142857142856,
  "trial": 25,
  "y": 0.08064462141102728,
  "participant": 5
 },
 {
  "stimulus": 9,
  "rt": 797.880016845427,
  "timestamp": 1468341476.981435,
  "x": 0.2571428571428571,
  "trial": 14,
  "y": 0.07574020038857707,
  "participant": 5
 },
 {
  "stimulus": 10,
  "rt": 492.2993896603745,
  "timestamp": 1468341476.981436,
  "x": 0.2857142857142857,
  "trial": 32,
  "y": 0.2723923296976135,
  "participant": 5
 },
 {
  "stimulus": 11,
  "rt": 742.7481573699088,
  "timestamp": 1468341476.981437,
  "x": 0.3142857142857143,
  "trial": 24,
  "y": 0.18427469042342343,
  "participant": 5
 },
 {
  "stimulus": 12,
  "rt": 657.838411521244,
  "timestamp": 1468341476.981439,
  "x": 0.34285714285714286,
  "trial": 27,
  "y": 0.5825451107198494,
  "participant": 5
 },
 {
  "stimulus": 13,
  "rt": 920.842691217466,
  "timestamp": 1468341476.98144,
  "x": 0.37142857142857144,
  "trial": 20,
  "y": 0.4564462651742671,
  "participant": 5
 },
 {
  "stimulus": 14,
  "rt": 420.5727734266626,
  "timestamp": 1468341476.981441,
  "x": 0.39999999999999997,
  "trial": 17,
  "y": 0.4155786796575743,
  "participant": 5
 },
 {
  "stimulus": 15,
  "rt": 290.5886393285986,
  "timestamp": 1468341476.981442,
  "x": 0.42857142857142855,
  "trial": 26,
  "y": 0.08772584057870232,
  "participant": 5
 },
 {
  "stimulus": 16,
  "rt": 349.3450808886924,
  "timestamp": 1468341476.981443,
  "x": 0.45714285714285713,
  "trial": 10,
  "y": 0.5433280177429008,
  "participant": 5
 },
 {
  "stimulus": 17,
  "rt": 526.1004988975038,
  "timestamp": 1468341476.981445,
  "x": 0.4857142857142857,
  "trial": 35,
  "y": 0.5689148305672838,
  "participant": 5
 },
 {
  "stimulus": 18,
  "rt": 892.522733918867,
  "timestamp": 1468341476.981446,
  "x": 0.5142857142857142,
  "trial": 31,
  "y": 0.721880516137016,
  "participant": 5
 },
 {
  "stimulus": 19,
  "rt": 420.0448899891532,
  "timestamp": 1468341476.981447,
  "x": 0.5428571428571428,
  "trial": 1,
  "y": 0.8135149946659276,
  "participant": 5
 },
 {
  "stimulus": 20,
  "rt": 681.4906696694334,
  "timestamp": 1468341476.981448,
  "x": 0.5714285714285714,
  "trial": 8,
  "y": 0.5777167800679168,
  "participant": 5
 },
 {
  "stimulus": 21,
  "rt": 715.1768645445956,
  "timestamp": 1468341476.981449,
  "x": 0.6,
  "trial": 28,
  "y": 0.8610460756530897,
  "participant": 5
 },
 {
  "stimulus": 22,
  "rt": 502.60733095180706,
  "timestamp": 1468341476.98145,
  "x": 0.6285714285714286,
  "trial": 0,
  "y": 0.673357227967307,
  "participant": 5
 },
 {
  "stimulus": 23,
  "rt": 259.4927395421548,
  "timestamp": 1468341476.981452,
  "x": 0.6571428571428571,
  "trial": 11,
  "y": 0.9714270759962448,
  "participant": 5
 },
 {
  "stimulus": 24,
  "rt": 811.2343799309415,
  "timestamp": 1468341476.981453,
  "x": 0.6857142857142857,
  "trial": 3,
  "y": 0.6283608368941779,
  "participant": 5
 },
 {
  "stimulus": 25,
  "rt": 411.8107723261673,
  "timestamp": 1468341476.981454,
  "x": 0.7142857142857143,
  "trial": 22,
  "y": 0.5943960319958985,
  "participant": 5
 },
 {
  "stimulus": 26,
  "rt": 518.0101660363347,
  "timestamp": 1468341476.981455,
  "x": 0.7428571428571429,
  "trial": 6,
  "y": 0.6852165899372368,
  "participant": 5
 },
 {
  "stimulus": 27,
  "rt": 482.4170009453537,
  "timestamp": 1468341476.981457,
  "x": 0.7714285714285714,
  "trial": 34,
  "y": 0.8610131113721144,
  "participant": 5
 },
 {
  "stimulus": 28,
  "rt": 728.6250068134576,
  "timestamp": 1468341476.981458,
  "x": 0.7999999999999999,
  "trial": 4,
  "y": 0.8677127005639423,
  "participant": 5
 },
 {
  "stimulus": 29,
  "rt": 277.731262424945,
  "timestamp": 1468341476.981459,
  "x": 0.8285714285714285,
  "trial": 30,
  "y": 0.994737083843611,
  "participant": 5
 },
 {
  "stimulus": 30,
  "rt": 637.7794021258541,
  "timestamp": 1468341476.98146,
  "x": 0.8571428571428571,
  "trial": 33,
  "y": 0.9624904679262491,
  "participant": 5
 },
 {
  "stimulus": 31,
  "rt": 191.0513357491866,
  "timestamp": 1468341476.981461,
  "x": 0.8857142857142857,
  "trial": 21,
  "y": 0.9251498124847705,
  "participant": 5
 },
 {
  "stimulus": 32,
  "rt": 990.5019628711991,
  "timestamp": 1468341476.981463,
  "x": 0.9142857142857143,
  "trial": 23,
  "y": 0.9948173369848988,
  "participant": 5
 },
 {
  "stimulus": 33,
  "rt": 682.7916470416679,
  "timestamp": 1468341476.981464,
  "x": 0.9428571428571428,
  "trial": 19,
  "y": 0.9790007870857039,
  "participant": 5
 },
 {
  "stimulus": 34,
  "rt": 506.86632403855646,
  "timestamp": 1468341476.981465,
  "x": 0.9714285714285714,
  "trial": 15,
  "y": 0.9700387848375054,
  "participant": 5
 },
 {
  "stimulus": 35,
  "rt": 301.08668139033296,
  "timestamp": 1468341476.981466,
  "x": 1.0,
  "trial": 12,
  "y": 0.9972014152492982,
  "participant": 5
 },
 {
  "stimulus": 0,
  "rt": 708.3869922056821,
  "timestamp": 1468341476.981468,
  "x": 0.0,
  "trial": 22,
  "y": 0.012411559171930514,
  "participant": 6
 },
 {
  "stimulus": 1,
  "rt": 503.1121301152906,
  "timestamp": 1468341476.981469,
  "x": 0.02857142857142857,
  "trial": 14,
  "y": 0.005770310309418254,
  "participant": 6
 },
 {
  "stimulus": 2,
  "rt": 418.1477656947883,
  "timestamp": 1468341476.98147,
  "x": 0.05714285714285714,
  "trial": 10,
  "y": 0.04648473619200939,
  "participant": 6
 },
 {
  "stimulus": 3,
  "rt": 637.8006268393318,
  "timestamp": 1468341476.981472,
  "x": 0.08571428571428572,
  "trial": 18,
  "y": 0.01774485357951394,
  "participant": 6
 },
 {
  "stimulus": 4,
  "rt": 912.3280983271766,
  "timestamp": 1468341476.981473,
  "x": 0.11428571428571428,
  "trial": 15,
  "y": 0.09619873764655082,
  "participant": 6
 },
 {
  "stimulus": 5,
  "rt": 649.2688574621895,
  "timestamp": 1468341476.981474,
  "x": 0.14285714285714285,
  "trial": 26,
  "y": 0.04441749477191645,
  "participant": 6
 },
 {
  "stimulus": 6,
  "rt": 737.4347159393124,
  "timestamp": 1468341476.981475,
  "x": 0.17142857142857143,
  "trial": 16,
  "y": 0.15098341236283686,
  "participant": 6
 },
 {
  "stimulus": 7,
  "rt": 537.2625984156591,
  "timestamp": 1468341476.981476,
  "x": 0.19999999999999998,
  "trial": 28,
  "y": 0.05262033403714345,
  "participant": 6
 },
 {
  "stimulus": 8,
  "rt": 983.7406691496567,
  "timestamp": 1468341476.981478,
  "x": 0.22857142857142856,
  "trial": 27,
  "y": 0.01918923471540436,
  "participant": 6
 },
 {
  "stimulus": 9,
  "rt": 817.1865364673284,
  "timestamp": 1468341476.981479,
  "x": 0.2571428571428571,
  "trial": 21,
  "y": 0.5051991177284121,
  "participant": 6
 },
 {
  "stimulus": 10,
  "rt": 471.2576130743433,
  "timestamp": 1468341476.98148,
  "x": 0.2857142857142857,
  "trial": 1,
  "y": 0.06364753875982668,
  "participant": 6
 },
 {
  "stimulus": 11,
  "rt": 727.1071159302852,
  "timestamp": 1468341476.981481,
  "x": 0.3142857142857143,
  "trial": 2,
  "y": 0.11344945629521647,
  "participant": 6
 },
 {
  "stimulus": 12,
  "rt": 645.0858190359043,
  "timestamp": 1468341476.981482,
  "x": 0.34285714285714286,
  "trial": 8,
  "y": 0.09348326317554068,
  "participant": 6
 },
 {
  "stimulus": 13,
  "rt": 882.979373715669,
  "timestamp": 1468341476.981484,
  "x": 0.37142857142857144,
  "trial": 4,
  "y": 0.1840555391522615,
  "participant": 6
 },
 {
  "stimulus": 14,
  "rt": 443.528431350336,
  "timestamp": 1468341476.981485,
  "x": 0.39999999999999997,
  "trial": 33,
  "y": 0.319226111128033,
  "participant": 6
 },
 {
  "stimulus": 15,
  "rt": 271.47922012258147,
  "timestamp": 1468341476.981486,
  "x": 0.42857142857142855,
  "trial": 32,
  "y": 0.37461806735714615,
  "participant": 6
 },
 {
  "stimulus": 16,
  "rt": 348.21633471300544,
  "timestamp": 1468341476.981487,
  "x": 0.45714285714285713,
  "trial": 6,
  "y": 0.557851958675993,
  "participant": 6
 },
 {
  "stimulus": 17,
  "rt": 515.0919979775231,
  "timestamp": 1468341476.981488,
  "x": 0.4857142857142857,
  "trial": 24,
  "y": 0.8387965651370358,
  "participant": 6
 },
 {
  "stimulus": 18,
  "rt": 879.9146490910172,
  "timestamp": 1468341476.981489,
  "x": 0.5142857142857142,
  "trial": 30,
  "y": 0.5055979088571149,
  "participant": 6
 },
 {
  "stimulus": 19,
  "rt": 428.1819704540828,
  "timestamp": 1468341476.981491,
  "x": 0.5428571428571428,
  "trial": 5,
  "y": 0.30905322000773094,
  "participant": 6
 },
 {
  "stimulus": 20,
  "rt": 703.2497956994015,
  "timestamp": 1468341476.981492,
  "x": 0.5714285714285714,
  "trial": 35,
  "y": 0.38508205084848063,
  "participant": 6
 },
 {
  "stimulus": 21,
  "rt": 707.0059462857944,
  "timestamp": 1468341476.981493,
  "x": 0.6,
  "trial": 17,
  "y": 0.5827920079771631,
  "participant": 6
 },
 {
  "stimulus": 22,
  "rt": 527.5120734198471,
  "timestamp": 1468341476.981494,
  "x": 0.6285714285714286,
  "trial": 7,
  "y": 0.40408289677226783,
  "participant": 6
 },
 {
  "stimulus": 23,
  "rt": 261.36180793382266,
  "timestamp": 1468341476.981495,
  "x": 0.6571428571428571,
  "trial": 29,
  "y": 0.9165568394999635,
  "participant": 6
 },
 {
  "stimulus": 24,
  "rt": 766.9851200305479,
  "timestamp": 1468341476.981497,
  "x": 0.6857142857142857,
  "trial": 9,
  "y": 0.7955856247503958,
  "participant": 6
 },
 {
  "stimulus": 25,
  "rt": 441.79787856990856,
  "timestamp": 1468341476.981498,
  "x": 0.7142857142857143,
  "trial": 25,
  "y": 0.8619846038799179,
  "participant": 6
 },
 {
  "stimulus": 26,
  "rt": 514.4587585771919,
  "timestamp": 1468341476.981499,
  "x": 0.7428571428571429,
  "trial": 13,
  "y": 0.918839288255369,
  "participant": 6
 },
 {
  "stimulus": 27,
  "rt": 488.04876804755577,
  "timestamp": 1468341476.9815,
  "x": 0.7714285714285714,
  "trial": 19,
  "y": 0.7887930093133342,
  "participant": 6
 },
 {
  "stimulus": 28,
  "rt": 719.2517774048705,
  "timestamp": 1468341476.981501,
  "x": 0.7999999999999999,
  "trial": 12,
  "y": 0.8946065609850055,
  "participant": 6
 },
 {
  "stimulus": 29,
  "rt": 260.8701870350737,
  "timestamp": 1468341476.981503,
  "x": 0.8285714285714285,
  "trial": 20,
  "y": 0.9813013048835069,
  "participant": 6
 },
 {
  "stimulus": 30,
  "rt": 648.2005283538977,
  "timestamp": 1468341476.981504,
  "x": 0.8571428571428571,
  "trial": 23,
  "y": 0.985079227497677,
  "participant": 6
 },
 {
  "stimulus": 31,
  "rt": 199.49595677478385,
  "timestamp": 1468341476.981505,
  "x": 0.8857142857142857,
  "trial": 0,
  "y": 0.9681383197100524,
  "participant": 6
 },
 {
  "stimulus": 32,
  "rt": 984.0927749323738,
  "timestamp": 1468341476.981506,
  "x": 0.9142857142857143,
  "trial": 31,
  "y": 0.9974097106902331,
  "participant": 6
 },
 {
  "stimulus": 33,
  "rt": 682.6860794599959,
  "timestamp": 1468341476.981508,
  "x": 0.9428571428571428,
  "trial": 3,
  "y": 0.9578252846067679,
  "participant": 6
 },
 {
  "stimulus": 34,
  "rt": 490.72895001166626,
  "timestamp": 1468341476.981509,
  "x": 0.9714285714285714,
  "trial": 11,
  "y": 0.987498156347246,
  "participant": 6
 },
 {
  "stimulus": 35,
  "rt": 333.33824112808077,
  "timestamp": 1468341476.98151,
  "x": 1.0,
  "trial": 34,
  "y": 0.9915839269658171,
  "participant": 6
 },
 {
  "stimulus": 0,
  "rt": 747.1066446945064,
  "timestamp": 1468341476.981512,
  "x": 0.0,
  "trial": 3,
  "y": 0.00041240796461243403,
  "participant": 7
 },
 {
  "stimulus": 1,
  "rt": 489.88216970329404,
  "timestamp": 1468341476.981513,
  "x": 0.02857142857142857,
  "trial": 32,
  "y": 0.058593189114814495,
  "participant": 7
 },
 {
  "stimulus": 2,
  "rt": 433.16786173779116,
  "timestamp": 1468341476.981514,
  "x": 0.05714285714285714,
  "trial": 13,
  "y": 0.01691924704394867,
  "participant": 7
 },
 {
  "stimulus": 3,
  "rt": 603.2162831947986,
  "timestamp": 1468341476.981515,
  "x": 0.08571428571428572,
  "trial": 25,
  "y": 0.005555220112310694,
  "participant": 7
 },
 {
  "stimulus": 4,
  "rt": 916.0826993229003,
  "timestamp": 1468341476.981517,
  "x": 0.11428571428571428,
  "trial": 33,
  "y": 0.141125964411685,
  "participant": 7
 },
 {
  "stimulus": 5,
  "rt": 649.7024917459596,
  "timestamp": 1468341476.981518,
  "x": 0.14285714285714285,
  "trial": 11,
  "y": 0.04807304992531743,
  "participant": 7
 },
 {
  "stimulus": 6,
  "rt": 761.2625675219616,
  "timestamp": 1468341476.981519,
  "x": 0.17142857142857143,
  "trial": 27,
  "y": 0.05436232416752287,
  "participant": 7
 },
 {
  "stimulus": 7,
  "rt": 548.5888497011675,
  "timestamp": 1468341476.98152,
  "x": 0.19999999999999998,
  "trial": 34,
  "y": 0.02641640692421792,
  "participant": 7
 },
 {
  "stimulus": 8,
  "rt": 988.7623799983676,
  "timestamp": 1468341476.981521,
  "x": 0.22857142857142856,
  "trial": 16,
  "y": 0.06862129930154967,
  "participant": 7
 },
 {
  "stimulus": 9,
  "rt": 802.4721919606061,
  "timestamp": 1468341476.981523,
  "x": 0.2571428571428571,
  "trial": 5,
  "y": 0.018812320684694683,
  "participant": 7
 },
 {
  "stimulus": 10,
  "rt": 468.83383105588734,
  "timestamp": 1468341476.981524,
  "x": 0.2857142857142857,
  "trial": 21,
  "y": 0.20622519505966938,
  "participant": 7
 },
 {
  "stimulus": 11,
  "rt": 692.7549669984318,
  "timestamp": 1468341476.981525,
  "x": 0.3142857142857143,
  "trial": 2,
  "y": 0.09695011952383448,
  "participant": 7
 },
 {
  "stimulus": 12,
  "rt": 642.1537310583889,
  "timestamp": 1468341476.981526,
  "x": 0.34285714285714286,
  "trial": 30,
  "y": 0.19195134034108355,
  "participant": 7
 },
 {
  "stimulus": 13,
  "rt": 919.000240037069,
  "timestamp": 1468341476.981527,
  "x": 0.37142857142857144,
  "trial": 6,
  "y": 0.4790973340037571,
  "participant": 7
 },
 {
  "stimulus": 14,
  "rt": 412.5725725071439,
  "timestamp": 1468341476.981529,
  "x": 0.39999999999999997,
  "trial": 24,
  "y": 0.32843940494902735,
  "participant": 7
 },
 {
  "stimulus": 15,
  "rt": 277.6377326671852,
  "timestamp": 1468341476.98153,
  "x": 0.42857142857142855,
  "trial": 31,
  "y": 0.3889285434168308,
  "participant": 7
 },
 {
  "stimulus": 16,
  "rt": 366.61424935187415,
  "timestamp": 1468341476.981531,
  "x": 0.45714285714285713,
  "trial": 0,
  "y": 0.46205506688461,
  "participant": 7
 },
 {
  "stimulus": 17,
  "rt": 521.5079966143772,
  "timestamp": 1468341476.981532,
  "x": 0.4857142857142857,
  "trial": 29,
  "y": 0.2939806395082599,
  "participant": 7
 },
 {
  "stimulus": 18,
  "rt": 896.5531560897759,
  "timestamp": 1468341476.981533,
  "x": 0.5142857142857142,
  "trial": 17,
  "y": 0.7268823265785537,
  "participant": 7
 },
 {
  "stimulus": 19,
  "rt": 420.3145153759317,
  "timestamp": 1468341476.981535,
  "x": 0.5428571428571428,
  "trial": 20,
  "y": 0.8778183209989094,
  "participant": 7
 },
 {
  "stimulus": 20,
  "rt": 690.1146323665213,
  "timestamp": 1468341476.981536,
  "x": 0.5714285714285714,
  "trial": 1,
  "y": 0.8135268050401925,
  "participant": 7
 },
 {
  "stimulus": 21,
  "rt": 681.8878665584821,
  "timestamp": 1468341476.981537,
  "x": 0.6,
  "trial": 23,
  "y": 0.8681739462400229,
  "participant": 7
 },
 {
  "stimulus": 22,
  "rt": 498.6942542443387,
  "timestamp": 1468341476.981538,
  "x": 0.6285714285714286,
  "trial": 10,
  "y": 0.6007120262574452,
  "participant": 7
 },
 {
  "stimulus": 23,
  "rt": 239.46520279112224,
  "timestamp": 1468341476.98154,
  "x": 0.6571428571428571,
  "trial": 8,
  "y": 0.6689946109950367,
  "participant": 7
 },
 {
  "stimulus": 24,
  "rt": 822.5809582250595,
  "timestamp": 1468341476.981541,
  "x": 0.6857142857142857,
  "trial": 19,
  "y": 0.6025895915539475,
  "participant": 7
 },
 {
  "stimulus": 25,
  "rt": 443.23247838676986,
  "timestamp": 1468341476.981542,
  "x": 0.7142857142857143,
  "trial": 35,
  "y": 0.966917547308544,
  "participant": 7
 },
 {
  "stimulus": 26,
  "rt": 517.6566133239276,
  "timestamp": 1468341476.981543,
  "x": 0.7428571428571429,
  "trial": 28,
  "y": 0.897926177979206,
  "participant": 7
 },
 {
  "stimulus": 27,
  "rt": 480.62363477912305,
  "timestamp": 1468341476.981544,
  "x": 0.7714285714285714,
  "trial": 7,
  "y": 0.9839225522343904,
  "participant": 7
 },
 {
  "stimulus": 28,
  "rt": 721.5848561647007,
  "timestamp": 1468341476.981545,
  "x": 0.7999999999999999,
  "trial": 4,
  "y": 0.9018621286630844,
  "participant": 7
 },
 {
  "stimulus": 29,
  "rt": 269.135374714361,
  "timestamp": 1468341476.981547,
  "x": 0.8285714285714285,
  "trial": 18,
  "y": 0.9452258384321718,
  "participant": 7
 },
 {
  "stimulus": 30,
  "rt": 636.8187535135537,
  "timestamp": 1468341476.981548,
  "x": 0.8571428571428571,
  "trial": 14,
  "y": 0.9750801174519582,
  "participant": 7
 },
 {
  "stimulus": 31,
  "rt": 224.9810875824798,
  "timestamp": 1468341476.981549,
  "x": 0.8857142857142857,
  "trial": 26,
  "y": 0.9916622809734167,
  "participant": 7
 },
 {
  "stimulus": 32,
  "rt": 984.2234607028604,
  "timestamp": 1468341476.98155,
  "x": 0.9142857142857143,
  "trial": 15,
  "y": 0.9852783840572729,
  "participant": 7
 },
 {
  "stimulus": 33,
  "rt": 688.4200861827653,
  "timestamp": 1468341476.981552,
  "x": 0.9428571428571428,
  "trial": 12,
  "y": 0.9904318025958911,
  "participant": 7
 },
 {
  "stimulus": 34,
  "rt": 505.70152190469145,
  "timestamp": 1468341476.981553,
  "x": 0.9714285714285714,
  "trial": 22,
  "y": 0.9912578044547279,
  "participant": 7
 },
 {
  "stimulus": 35,
  "rt": 314.7568814716601,
  "timestamp": 1468341476.981554,
  "x": 1.0,
  "trial": 9,
  "y": 0.9943878181282345,
  "participant": 7
 },
 {
  "stimulus": 0,
  "rt": 732.8899105656739,
  "timestamp": 1468341476.981556,
  "x": 0.0,
  "trial": 2,
  "y": 0.0022013734500780156,
  "participant": 8
 },
 {
  "stimulus": 1,
  "rt": 487.62402990840167,
  "timestamp": 1468341476.981557,
  "x": 0.02857142857142857,
  "trial": 17,
  "y": 0.009628443371997942,
  "participant": 8
 },
 {
  "stimulus": 2,
  "rt": 415.9881475165701,
  "timestamp": 1468341476.981558,
  "x": 0.05714285714285714,
  "trial": 7,
  "y": 0.009803631258638236,
  "participant": 8
 },
 {
  "stimulus": 3,
  "rt": 587.5161332124353,
  "timestamp": 1468341476.981559,
  "x": 0.08571428571428572,
  "trial": 13,
  "y": 0.014778666617542645,
  "participant": 8
 },
 {
  "stimulus": 4,
  "rt": 910.1559558407122,
  "timestamp": 1468341476.981561,
  "x": 0.11428571428571428,
  "trial": 4,
  "y": 0.03341364474564089,
  "participant": 8
 },
 {
  "stimulus": 5,
  "rt": 668.7869143172222,
  "timestamp": 1468341476.981562,
  "x": 0.14285714285714285,
  "trial": 14,
  "y": 0.014034445587305239,
  "participant": 8
 },
 {
  "stimulus": 6,
  "rt": 741.066770366514,
  "timestamp": 1468341476.981563,
  "x": 0.17142857142857143,
  "trial": 8,
  "y": 0.03323916421673922,
  "participant": 8
 },
 {
  "stimulus": 7,
  "rt": 564.4654088971806,
  "timestamp": 1468341476.981564,
  "x": 0.19999999999999998,
  "trial": 33,
  "y": 0.035661803174215606,
  "participant": 8
 },
 {
  "stimulus": 8,
  "rt": 994.0116789401903,
  "timestamp": 1468341476.981565,
  "x": 0.22857142857142856,
  "trial": 16,
  "y": 0.09137307718028699,
  "participant": 8
 },
 {
  "stimulus": 9,
  "rt": 803.6959316818272,
  "timestamp": 1468341476.981567,
  "x": 0.2571428571428571,
  "trial": 28,
  "y": 0.16194855339661024,
  "participant": 8
 },
 {
  "stimulus": 10,
  "rt": 495.65937019412377,
  "timestamp": 1468341476.981568,
  "x": 0.2857142857142857,
  "trial": 27,
  "y": 0.043178159666753285,
  "participant": 8
 },
 {
  "stimulus": 11,
  "rt": 729.0742115568826,
  "timestamp": 1468341476.981569,
  "x": 0.3142857142857143,
  "trial": 26,
  "y": 0.21904635406939543,
  "participant": 8
 },
 {
  "stimulus": 12,
  "rt": 618.9947509111668,
  "timestamp": 1468341476.98157,
  "x": 0.34285714285714286,
  "trial": 32,
  "y": 0.6211317619701495,
  "participant": 8
 },
 {
  "stimulus": 13,
  "rt": 915.3885789547683,
  "timestamp": 1468341476.981571,
  "x": 0.37142857142857144,
  "trial": 22,
  "y": 0.05969976093655704,
  "participant": 8
 },
 {
  "stimulus": 14,
  "rt": 434.6849450782053,
  "timestamp": 1468341476.981573,
  "x": 0.39999999999999997,
  "trial": 29,
  "y": 0.13821779682290128,
  "participant": 8
 },
 {
  "stimulus": 15,
  "rt": 272.64780833076156,
  "timestamp": 1468341476.981574,
  "x": 0.42857142857142855,
  "trial": 5,
  "y": 0.16870076246763682,
  "participant": 8
 },
 {
  "stimulus": 16,
  "rt": 356.6706123992962,
  "timestamp": 1468341476.981575,
  "x": 0.45714285714285713,
  "trial": 12,
  "y": 0.330114077219275,
  "participant": 8
 },
 {
  "stimulus": 17,
  "rt": 526.3982262793351,
  "timestamp": 1468341476.981576,
  "x": 0.4857142857142857,
  "trial": 25,
  "y": 0.8145713637563184,
  "participant": 8
 },
 {
  "stimulus": 18,
  "rt": 877.466663979365,
  "timestamp": 1468341476.981577,
  "x": 0.5142857142857142,
  "trial": 10,
  "y": 0.5389732365355399,
  "participant": 8
 },
 {
  "stimulus": 19,
  "rt": 396.22606286344615,
  "timestamp": 1468341476.981579,
  "x": 0.5428571428571428,
  "trial": 0,
  "y": 0.43385934401051557,
  "participant": 8
 },
 {
  "stimulus": 20,
  "rt": 702.0395483222269,
  "timestamp": 1468341476.98158,
  "x": 0.5714285714285714,
  "trial": 11,
  "y": 0.7918460791980652,
  "participant": 8
 },
 {
  "stimulus": 21,
  "rt": 723.5106539815301,
  "timestamp": 1468341476.981581,
  "x": 0.6,
  "trial": 35,
  "y": 0.5987346227170637,
  "participant": 8
 },
 {
  "stimulus": 22,
  "rt": 512.3059085620079,
  "timestamp": 1468341476.981582,
  "x": 0.6285714285714286,
  "trial": 23,
  "y": 0.9175205985572212,
  "participant": 8
 },
 {
  "stimulus": 23,
  "rt": 238.63673416743876,
  "timestamp": 1468341476.981584,
  "x": 0.6571428571428571,
  "trial": 24,
  "y": 0.8672311163447086,
  "participant": 8
 },
 {
  "stimulus": 24,
  "rt": 784.2416291458075,
  "timestamp": 1468341476.981585,
  "x": 0.6857142857142857,
  "trial": 9,
  "y": 0.9625263078141847,
  "participant": 8
 },
 {
  "stimulus": 25,
  "rt": 431.023847926333,
  "timestamp": 1468341476.981586,
  "x": 0.7142857142857143,
  "trial": 34,
  "y": 0.8148009865225859,
  "participant": 8
 },
 {
  "stimulus": 26,
  "rt": 522.4006635646526,
  "timestamp": 1468341476.981587,
  "x": 0.7428571428571429,
  "trial": 3,
  "y": 0.9957620494905729,
  "participant": 8
 },
 {
  "stimulus": 27,
  "rt": 524.6517655872517,
  "timestamp": 1468341476.981588,
  "x": 0.7714285714285714,
  "trial": 20,
  "y": 0.971773742469982,
  "participant": 8
 },
 {
  "stimulus": 28,
  "rt": 719.7889231717115,
  "timestamp": 1468341476.98159,
  "x": 0.7999999999999999,
  "trial": 18,
  "y": 0.9747801396023469,
  "participant": 8
 },
 {
  "stimulus": 29,
  "rt": 258.09711228828525,
  "timestamp": 1468341476.981591,
  "x": 0.8285714285714285,
  "trial": 1,
  "y": 0.9621130720302117,
  "participant": 8
 },
 {
  "stimulus": 30,
  "rt": 626.4061675997091,
  "timestamp": 1468341476.981592,
  "x": 0.8571428571428571,
  "trial": 6,
  "y": 0.9451028048273141,
  "participant": 8
 },
 {
  "stimulus": 31,
  "rt": 195.40629508996264,
  "timestamp": 1468341476.981593,
  "x": 0.8857142857142857,
  "trial": 21,
  "y": 0.9520917726572803,
  "participant": 8
 },
 {
  "stimulus": 32,
  "rt": 962.6750307485805,
  "timestamp": 1468341476.981594,
  "x": 0.9142857142857143,
  "trial": 30,
  "y": 0.9821349041079404,
  "participant": 8
 },
 {
  "stimulus": 33,
  "rt": 665.5647942173138,
  "timestamp": 1468341476.981596,
  "x": 0.9428571428571428,
  "trial": 31,
  "y": 0.9742014957948737,
  "participant": 8
 },
 {
  "stimulus": 34,
  "rt": 505.6534619912269,
  "timestamp": 1468341476.981597,
  "x": 0.9714285714285714,
  "trial": 15,
  "y": 0.9932869181575466,
  "participant": 8
 },
 {
  "stimulus": 35,
  "rt": 318.03091411523087,
  "timestamp": 1468341476.981598,
  "x": 1.0,
  "trial": 19,
  "y": 0.9848412504549009,
  "participant": 8
 },
 {
  "stimulus": 0,
  "rt": 727.2895950847759,
  "timestamp": 1468341476.9816,
  "x": 0.0,
  "trial": 35,
  "y": 0.012383649502036844,
  "participant": 9
 },
 {
  "stimulus": 1,
  "rt": 489.5304776394599,
  "timestamp": 1468341476.981601,
  "x": 0.02857142857142857,
  "trial": 18,
  "y": 0.02279480469475773,
  "participant": 9
 },
 {
  "stimulus": 2,
  "rt": 411.1295314568912,
  "timestamp": 1468341476.981602,
  "x": 0.05714285714285714,
  "trial": 8,
  "y": 0.005856019518741638,
  "participant": 9
 },
 {
  "stimulus": 3,
  "rt": 598.5604562794375,
  "timestamp": 1468341476.981603,
  "x": 0.08571428571428572,
  "trial": 0,
  "y": 0.049728426694536074,
  "participant": 9
 },
 {
  "stimulus": 4,
  "rt": 910.9775365089171,
  "timestamp": 1468341476.981604,
  "x": 0.11428571428571428,
  "trial": 22,
  "y": 0.016381510899017824,
  "participant": 9
 },
 {
  "stimulus": 5,
  "rt": 650.3542804716257,
  "timestamp": 1468341476.981606,
  "x": 0.14285714285714285,
  "trial": 33,
  "y": 0.08195014029970062,
  "participant": 9
 },
 {
  "stimulus": 6,
  "rt": 739.7268681053081,
  "timestamp": 1468341476.981607,
  "x": 0.17142857142857143,
  "trial": 23,
  "y": 0.05480820588720237,
  "participant": 9
 },
 {
  "stimulus": 7,
  "rt": 543.7542687939999,
  "timestamp": 1468341476.981608,
  "x": 0.19999999999999998,
  "trial": 25,
  "y": 0.13265653834117147,
  "participant": 9
 },
 {
  "stimulus": 8,
  "rt": 988.5308380792408,
  "timestamp": 1468341476.981609,
  "x": 0.22857142857142856,
  "trial": 28,
  "y": 0.023862261451375228,
  "participant": 9
 },
 {
  "stimulus": 9,
  "rt": 805.184111952492,
  "timestamp": 1468341476.981611,
  "x": 0.2571428571428571,
  "trial": 13,
  "y": 0.07341582276071949,
  "participant": 9
 },
 {
  "stimulus": 10,
  "rt": 480.8124989917187,
  "timestamp": 1468341476.981612,
  "x": 0.2857142857142857,
  "trial": 20,
  "y": 0.33371550903902814,
  "participant": 9
 },
 {
  "stimulus": 11,
  "rt": 715.449494886564,
  "timestamp": 1468341476.981613,
  "x": 0.3142857142857143,
  "trial": 21,
  "y": 0.07761659610536877,
  "participant": 9
 },
 {
  "stimulus": 12,
  "rt": 636.2394775418189,
  "timestamp": 1468341476.981614,
  "x": 0.34285714285714286,
  "trial": 4,
  "y": 0.026374482060859374,
  "participant": 9
 },
 {
  "stimulus": 13,
  "rt": 897.8675040530362,
  "timestamp": 1468341476.981615,
  "x": 0.37142857142857144,
  "trial": 2,
  "y": 0.03811439611394224,
  "participant": 9
 },
 {
  "stimulus": 14,
  "rt": 443.64530647429353,
  "timestamp": 1468341476.981617,
  "x": 0.39999999999999997,
  "trial": 27,
  "y": 0.029129529204927476,
  "participant": 9
 },
 {
  "stimulus": 15,
  "rt": 288.1231094454249,
  "timestamp": 1468341476.981618,
  "x": 0.42857142857142855,
  "trial": 16,
  "y": 0.05580603302796044,
  "participant": 9
 },
 {
  "stimulus": 16,
  "rt": 362.40585269783514,
  "timestamp": 1468341476.981619,
  "x": 0.45714285714285713,
  "trial": 6,
  "y": 0.3014904327926252,
  "participant": 9
 },
 {
  "stimulus": 17,
  "rt": 494.6253012301256,
  "timestamp": 1468341476.981621,
  "x": 0.4857142857142857,
  "trial": 31,
  "y": 0.7568839319972926,
  "participant": 9
 },
 {
  "stimulus": 18,
  "rt": 862.5062451539143,
  "timestamp": 1468341476.981623,
  "x": 0.5142857142857142,
  "trial": 32,
  "y": 0.4257109767705861,
  "participant": 9
 },
 {
  "stimulus": 19,
  "rt": 424.81811735310976,
  "timestamp": 1468341476.981624,
  "x": 0.5428571428571428,
  "trial": 26,
  "y": 0.6796358412245559,
  "participant": 9
 },
 {
  "stimulus": 20,
  "rt": 707.1988602813832,
  "timestamp": 1468341476.981625,
  "x": 0.5714285714285714,
  "trial": 17,
  "y": 0.6466381414020652,
  "participant": 9
 },
 {
  "stimulus": 21,
  "rt": 689.830397411264,
  "timestamp": 1468341476.981626,
  "x": 0.6,
  "trial": 34,
  "y": 0.7327360795232041,
  "participant": 9
 },
 {
  "stimulus": 22,
  "rt": 519.722998770826,
  "timestamp": 1468341476.981628,
  "x": 0.6285714285714286,
  "trial": 15,
  "y": 0.7535275664170115,
  "participant": 9
 },
 {
  "stimulus": 23,
  "rt": 232.21266749765184,
  "timestamp": 1468341476.981629,
  "x": 0.6571428571428571,
  "trial": 10,
  "y": 0.8017468606302256,
  "participant": 9
 },
 {
  "stimulus": 24,
  "rt": 798.5662114733092,
  "timestamp": 1468341476.98163,
  "x": 0.6857142857142857,
  "trial": 3,
  "y": 0.9103819068389777,
  "participant": 9
 },
 {
  "stimulus": 25,
  "rt": 447.5254966676361,
  "timestamp": 1468341476.981631,
  "x": 0.7142857142857143,
  "trial": 30,
  "y": 0.7244960755019052,
  "participant": 9
 },
 {
  "stimulus": 26,
  "rt": 500.4642756520012,
  "timestamp": 1468341476.981632,
  "x": 0.7428571428571429,
  "trial": 19,
  "y": 0.9688923157532158,
  "participant": 9
 },
 {
  "stimulus": 27,
  "rt": 507.46344759042165,
  "timestamp": 1468341476.981634,
  "x": 0.7714285714285714,
  "trial": 24,
  "y": 0.9742768376869766,
  "participant": 9
 },
 {
  "stimulus": 28,
  "rt": 720.5256577574072,
  "timestamp": 1468341476.981635,
  "x": 0.7999999999999999,
  "trial": 14,
  "y": 0.9429423324204603,
  "participant": 9
 },
 {
  "stimulus": 29,
  "rt": 262.7765675735272,
  "timestamp": 1468341476.981636,
  "x": 0.8285714285714285,
  "trial": 1,
  "y": 0.9835542823289443,
  "participant": 9
 },
 {
  "stimulus": 30,
  "rt": 638.0112269568756,
  "timestamp": 1468341476.981637,
  "x": 0.8571428571428571,
  "trial": 5,
  "y": 0.9463476205235358,
  "participant": 9
 },
 {
  "stimulus": 31,
  "rt": 196.20802748955805,
  "timestamp": 1468341476.981638,
  "x": 0.8857142857142857,
  "trial": 9,
  "y": 0.9651058918332047,
  "participant": 9
 },
 {
  "stimulus": 32,
  "rt": 1020.1239210900917,
  "timestamp": 1468341476.98164,
  "x": 0.9142857142857143,
  "trial": 7,
  "y": 0.9866014675387503,
  "participant": 9
 },
 {
  "stimulus": 33,
  "rt": 707.4709925642765,
  "timestamp": 1468341476.981641,
  "x": 0.9428571428571428,
  "trial": 11,
  "y": 0.9857739237168059,
  "participant": 9
 },
 {
  "stimulus": 34,
  "rt": 516.2036805459336,
  "timestamp": 1468341476.981642,
  "x": 0.9714285714285714,
  "trial": 12,
  "y": 0.9861503338209847,
  "participant": 9
 },
 {
  "stimulus": 35,
  "rt": 325.1702934603126,
  "timestamp": 1468341476.981643,
  "x": 1.0,
  "trial": 29,
  "y": 0.9869721437339962,
  "participant": 9
 },
 {
  "stimulus": 0,
  "rt": 697.2809765680788,
  "timestamp": 1468341476.981645,
  "x": 0.0,
  "trial": 12,
  "y": 0.0038436004753963668,
  "participant": 10
 },
 {
  "stimulus": 1,
  "rt": 535.9818677378124,
  "timestamp": 1468341476.981646,
  "x": 0.02857142857142857,
  "trial": 11,
  "y": 0.022420213524350405,
  "participant": 10
 },
 {
  "stimulus": 2,
  "rt": 420.65252811790685,
  "timestamp": 1468341476.981647,
  "x": 0.05714285714285714,
  "trial": 34,
  "y": 0.0017060026207122774,
  "participant": 10
 },
 {
  "stimulus": 3,
  "rt": 605.6210441212497,
  "timestamp": 1468341476.981649,
  "x": 0.08571428571428572,
  "trial": 4,
  "y": 0.02208848456761887,
  "participant": 10
 },
 {
  "stimulus": 4,
  "rt": 927.2539538198381,
  "timestamp": 1468341476.98165,
  "x": 0.11428571428571428,
  "trial": 10,
  "y": 0.016405778599887896,
  "participant": 10
 },
 {
  "stimulus": 5,
  "rt": 656.2597454927928,
  "timestamp": 1468341476.981651,
  "x": 0.14285714285714285,
  "trial": 20,
  "y": 0.05501230226210998,
  "participant": 10
 },
 {
  "stimulus": 6,
  "rt": 718.5246127715503,
  "timestamp": 1468341476.981652,
  "x": 0.17142857142857143,
  "trial": 6,
  "y": 0.058931472675887026,
  "participant": 10
 },
 {
  "stimulus": 7,
  "rt": 549.7221834037657,
  "timestamp": 1468341476.981654,
  "x": 0.19999999999999998,
  "trial": 27,
  "y": 0.0030714342978608805,
  "participant": 10
 },
 {
  "stimulus": 8,
  "rt": 971.9026937846356,
  "timestamp": 1468341476.981655,
  "x": 0.22857142857142856,
  "trial": 17,
  "y": 0.1062492576352236,
  "participant": 10
 },
 {
  "stimulus": 9,
  "rt": 795.0165572120948,
  "timestamp": 1468341476.981656,
  "x": 0.2571428571428571,
  "trial": 26,
  "y": 0.10867985860454474,
  "participant": 10
 },
 {
  "stimulus": 10,
  "rt": 492.48550371949653,
  "timestamp": 1468341476.981657,
  "x": 0.2857142857142857,
  "trial": 16,
  "y": 0.10707296936262072,
  "participant": 10
 },
 {
  "stimulus": 11,
  "rt": 731.053189729766,
  "timestamp": 1468341476.981658,
  "x": 0.3142857142857143,
  "trial": 2,
  "y": 0.08900728555019785,
  "participant": 10
 },
 {
  "stimulus": 12,
  "rt": 654.1899541658804,
  "timestamp": 1468341476.98166,
  "x": 0.34285714285714286,
  "trial": 31,
  "y": 0.3278010795936561,
  "participant": 10
 },
 {
  "stimulus": 13,
  "rt": 907.1815988283613,
  "timestamp": 1468341476.981661,
  "x": 0.37142857142857144,
  "trial": 7,
  "y": 0.1546294299890514,
  "participant": 10
 },
 {
  "stimulus": 14,
  "rt": 434.84043347366423,
  "timestamp": 1468341476.981662,
  "x": 0.39999999999999997,
  "trial": 22,
  "y": 0.6973515221504621,
  "participant": 10
 },
 {
  "stimulus": 15,
  "rt": 312.81306739620766,
  "timestamp": 1468341476.981663,
  "x": 0.42857142857142855,
  "trial": 13,
  "y": 0.46259430395200307,
  "participant": 10
 },
 {
  "stimulus": 16,
  "rt": 334.0819469829701,
  "timestamp": 1468341476.981664,
  "x": 0.45714285714285713,
  "trial": 18,
  "y": 0.8467398420218968,
  "participant": 10
 },
 {
  "stimulus": 17,
  "rt": 520.6425078011846,
  "timestamp": 1468341476.981666,
  "x": 0.4857142857142857,
  "trial": 30,
  "y": 0.28325123133033964,
  "participant": 10
 },
 {
  "stimulus": 18,
  "rt": 866.6858630968267,
  "timestamp": 1468341476.981667,
  "x": 0.5142857142857142,
  "trial": 25,
  "y": 0.1661630288113247,
  "participant": 10
 },
 {
  "stimulus": 19,
  "rt": 393.3994248633309,
  "timestamp": 1468341476.981668,
  "x": 0.5428571428571428,
  "trial": 3,
  "y": 0.758296192875315,
  "participant": 10
 },
 {
  "stimulus": 20,
  "rt": 725.5618572513189,
  "timestamp": 1468341476.981669,
  "x": 0.5714285714285714,
  "trial": 29,
  "y": 0.8273540535190047,
  "participant": 10
 },
 {
  "stimulus": 21,
  "rt": 716.3787825655343,
  "timestamp": 1468341476.981671,
  "x": 0.6,
  "trial": 15,
  "y": 0.7379537420124114,
  "participant": 10
 },
 {
  "stimulus": 22,
  "rt": 534.5211074467959,
  "timestamp": 1468341476.981672,
  "x": 0.6285714285714286,
  "trial": 8,
  "y": 0.4370658077615653,
  "participant": 10
 },
 {
  "stimulus": 23,
  "rt": 232.9019857270677,
  "timestamp": 1468341476.981673,
  "x": 0.6571428571428571,
  "trial": 0,
  "y": 0.7546435350610762,
  "participant": 10
 },
 {
  "stimulus": 24,
  "rt": 819.0893258835836,
  "timestamp": 1468341476.981674,
  "x": 0.6857142857142857,
  "trial": 19,
  "y": 0.9223797301468644,
  "participant": 10
 },
 {
  "stimulus": 25,
  "rt": 415.46477266957095,
  "timestamp": 1468341476.981675,
  "x": 0.7142857142857143,
  "trial": 33,
  "y": 0.8763901156712001,
  "participant": 10
 },
 {
  "stimulus": 26,
  "rt": 519.8074285306499,
  "timestamp": 1468341476.981676,
  "x": 0.7428571428571429,
  "trial": 14,
  "y": 0.9099140756736571,
  "participant": 10
 },
 {
  "stimulus": 27,
  "rt": 509.2851323928295,
  "timestamp": 1468341476.981678,
  "x": 0.7714285714285714,
  "trial": 35,
  "y": 0.9268192900935126,
  "participant": 10
 },
 {
  "stimulus": 28,
  "rt": 750.7615448504331,
  "timestamp": 1468341476.981679,
  "x": 0.7999999999999999,
  "trial": 1,
  "y": 0.887562890666008,
  "participant": 10
 },
 {
  "stimulus": 29,
  "rt": 245.49123347622546,
  "timestamp": 1468341476.98168,
  "x": 0.8285714285714285,
  "trial": 23,
  "y": 0.9400653143627419,
  "participant": 10
 },
 {
  "stimulus": 30,
  "rt": 592.5868348834409,
  "timestamp": 1468341476.981681,
  "x": 0.8571428571428571,
  "trial": 5,
  "y": 0.8951887194566123,
  "participant": 10
 },
 {
  "stimulus": 31,
  "rt": 214.1193312124013,
  "timestamp": 1468341476.981683,
  "x": 0.8857142857142857,
  "trial": 32,
  "y": 0.9964067655141113,
  "participant": 10
 },
 {
  "stimulus": 32,
  "rt": 991.3337910517137,
  "timestamp": 1468341476.981684,
  "x": 0.9142857142857143,
  "trial": 28,
  "y": 0.9750954359582755,
  "participant": 10
 },
 {
  "stimulus": 33,
  "rt": 681.4242378809994,
  "timestamp": 1468341476.981685,
  "x": 0.9428571428571428,
  "trial": 9,
  "y": 0.9926536747208817,
  "participant": 10
 },
 {
  "stimulus": 34,
  "rt": 493.74246545022436,
  "timestamp": 1468341476.981686,
  "x": 0.9714285714285714,
  "trial": 21,
  "y": 0.9756933831697169,
  "participant": 10
 },
 {
  "stimulus": 35,
  "rt": 316.716289124481,
  "timestamp": 1468341476.981687,
  "x": 1.0,
  "trial": 24,
  "y": 0.9969650726183152,
  "participant": 10
 },
 {
  "stimulus": 0,
  "rt": 691.5262939139534,
  "timestamp": 1468341476.981689,
  "x": 0.0,
  "trial": 15,
  "y": 0.0010341291144025048,
  "participant": 11
 },
 {
  "stimulus": 1,
  "rt": 505.23764906729537,
  "timestamp": 1468341476.98169,
  "x": 0.02857142857142857,
  "trial": 24,
  "y": 0.022017146613769842,
  "participant": 11
 },
 {
  "stimulus": 2,
  "rt": 433.04665306915086,
  "timestamp": 1468341476.981691,
  "x": 0.05714285714285714,
  "trial": 19,
  "y": 0.011385775755632477,
  "participant": 11
 },
 {
  "stimulus": 3,
  "rt": 597.1301453574081,
  "timestamp": 1468341476.981693,
  "x": 0.08571428571428572,
  "trial": 14,
  "y": 0.11585802977360798,
  "participant": 11
 },
 {
  "stimulus": 4,
  "rt": 880.1974096045554,
  "timestamp": 1468341476.981694,
  "x": 0.11428571428571428,
  "trial": 0,
  "y": 0.005688087200654837,
  "participant": 11
 },
 {
  "stimulus": 5,
  "rt": 650.3885050012592,
  "timestamp": 1468341476.981695,
  "x": 0.14285714285714285,
  "trial": 33,
  "y": 0.029453456409312326,
  "participant": 11
 },
 {
  "stimulus": 6,
  "rt": 727.6999023649971,
  "timestamp": 1468341476.981696,
  "x": 0.17142857142857143,
  "trial": 28,
  "y": 0.051247434632790266,
  "participant": 11
 },
 {
  "stimulus": 7,
  "rt": 551.9585598568932,
  "timestamp": 1468341476.981698,
  "x": 0.19999999999999998,
  "trial": 12,
  "y": 0.1459032424401056,
  "participant": 11
 },
 {
  "stimulus": 8,
  "rt": 996.225365850135,
  "timestamp": 1468341476.981699,
  "x": 0.22857142857142856,
  "trial": 29,
  "y": 0.041600892463347104,
  "participant": 11
 },
 {
  "stimulus": 9,
  "rt": 795.986371169759,
  "timestamp": 1468341476.9817,
  "x": 0.2571428571428571,
  "trial": 4,
  "y": 0.08769519655006495,
  "participant": 11
 },
 {
  "stimulus": 10,
  "rt": 513.5218686301237,
  "timestamp": 1468341476.981701,
  "x": 0.2857142857142857,
  "trial": 26,
  "y": 0.013582146586265683,
  "participant": 11
 },
 {
  "stimulus": 11,
  "rt": 728.2323542462448,
  "timestamp": 1468341476.981702,
  "x": 0.3142857142857143,
  "trial": 31,
  "y": 0.06372622702263304,
  "participant": 11
 },
 {
  "stimulus": 12,
  "rt": 618.6516384068713,
  "timestamp": 1468341476.981704,
  "x": 0.34285714285714286,
  "trial": 7,
  "y": 0.2460460421091587,
  "participant": 11
 },
 {
  "stimulus": 13,
  "rt": 923.3451722682237,
  "timestamp": 1468341476.981705,
  "x": 0.37142857142857144,
  "trial": 30,
  "y": 0.45473924589553893,
  "participant": 11
 },
 {
  "stimulus": 14,
  "rt": 418.760120410804,
  "timestamp": 1468341476.981706,
  "x": 0.39999999999999997,
  "trial": 17,
  "y": 0.21725481711319705,
  "participant": 11
 },
 {
  "stimulus": 15,
  "rt": 279.51219536377914,
  "timestamp": 1468341476.981707,
  "x": 0.42857142857142855,
  "trial": 34,
  "y": 0.7928301146970592,
  "participant": 11
 },
 {
  "stimulus": 16,
  "rt": 356.98585318766146,
  "timestamp": 1468341476.981708,
  "x": 0.45714285714285713,
  "trial": 3,
  "y": 0.791118026803792,
  "participant": 11
 },
 {
  "stimulus": 17,
  "rt": 511.2672089596988,
  "timestamp": 1468341476.98171,
  "x": 0.4857142857142857,
  "trial": 1,
  "y": 0.4492974627503459,
  "participant": 11
 },
 {
  "stimulus": 18,
  "rt": 861.1118232471387,
  "timestamp": 1468341476.981711,
  "x": 0.5142857142857142,
  "trial": 20,
  "y": 0.09358341256366191,
  "participant": 11
 },
 {
  "stimulus": 19,
  "rt": 404.6105977635429,
  "timestamp": 1468341476.981712,
  "x": 0.5428571428571428,
  "trial": 6,
  "y": 0.20603473420236215,
  "participant": 11
 },
 {
  "stimulus": 20,
  "rt": 717.4484740301274,
  "timestamp": 1468341476.981713,
  "x": 0.5714285714285714,
  "trial": 25,
  "y": 0.4841120725295173,
  "participant": 11
 },
 {
  "stimulus": 21,
  "rt": 701.3400656098339,
  "timestamp": 1468341476.981714,
  "x": 0.6,
  "trial": 11,
  "y": 0.8924333433164826,
  "participant": 11
 },
 {
  "stimulus": 22,
  "rt": 535.5129385412689,
  "timestamp": 1468341476.981716,
  "x": 0.6285714285714286,
  "trial": 10,
  "y": 0.8314567057258693,
  "participant": 11
 },
 {
  "stimulus": 23,
  "rt": 254.75687315793712,
  "timestamp": 1468341476.981717,
  "x": 0.6571428571428571,
  "trial": 16,
  "y": 0.3721932366238159,
  "participant": 11
 },
 {
  "stimulus": 24,
  "rt": 821.3267760658047,
  "timestamp": 1468341476.981718,
  "x": 0.6857142857142857,
  "trial": 5,
  "y": 0.8359471866022695,
  "participant": 11
 },
 {
  "stimulus": 25,
  "rt": 427.5036272338815,
  "timestamp": 1468341476.981719,
  "x": 0.7142857142857143,
  "trial": 8,
  "y": 0.9771618188052535,
  "participant": 11
 },
 {
  "stimulus": 26,
  "rt": 508.7765534135886,
  "timestamp": 1468341476.98172,
  "x": 0.7428571428571429,
  "trial": 21,
  "y": 0.8863276740054127,
  "participant": 11
 },
 {
  "stimulus": 27,
  "rt": 488.6612598391879,
  "timestamp": 1468341476.981722,
  "x": 0.7714285714285714,
  "trial": 2,
  "y": 0.8769992945230297,
  "participant": 11
 },
 {
  "stimulus": 28,
  "rt": 722.3541762100731,
  "timestamp": 1468341476.981723,
  "x": 0.7999999999999999,
  "trial": 27,
  "y": 0.9936606789261649,
  "participant": 11
 },
 {
  "stimulus": 29,
  "rt": 256.1055698251834,
  "timestamp": 1468341476.981724,
  "x": 0.8285714285714285,
  "trial": 9,
  "y": 0.9657468703099555,
  "participant": 11
 },
 {
  "stimulus": 30,
  "rt": 639.6988877170573,
  "timestamp": 1468341476.981725,
  "x": 0.8571428571428571,
  "trial": 35,
  "y": 0.9565728227954667,
  "participant": 11
 },
 {
  "stimulus": 31,
  "rt": 210.800276510483,
  "timestamp": 1468341476.981726,
  "x": 0.8857142857142857,
  "trial": 13,
  "y": 0.9853319945940713,
  "participant": 11
 },
 {
  "stimulus": 32,
  "rt": 994.686252726182,
  "timestamp": 1468341476.981728,
  "x": 0.9142857142857143,
  "trial": 23,
  "y": 0.9846326253463467,
  "participant": 11
 },
 {
  "stimulus": 33,
  "rt": 661.8314936624585,
  "timestamp": 1468341476.981729,
  "x": 0.9428571428571428,
  "trial": 22,
  "y": 0.9820037045131743,
  "participant": 11
 },
 {
  "stimulus": 34,
  "rt": 498.0054065999851,
  "timestamp": 1468341476.98173,
  "x": 0.9714285714285714,
  "trial": 18,
  "y": 0.9973293043865534,
  "participant": 11
 },
 {
  "stimulus": 35,
  "rt": 322.50360851226094,
  "timestamp": 1468341476.981731,
  "x": 1.0,
  "trial": 32,
  "y": 0.997796938498946,
  "participant": 11
 },
 {
  "stimulus": 0,
  "rt": 723.6603020572495,
  "timestamp": 1468341476.981733,
  "x": 0.0,
  "trial": 9,
  "y": 0.01538074771084928,
  "participant": 12
 },
 {
  "stimulus": 1,
  "rt": 465.2402751137922,
  "timestamp": 1468341476.981734,
  "x": 0.02857142857142857,
  "trial": 18,
  "y": 0.008024707886932665,
  "participant": 12
 },
 {
  "stimulus": 2,
  "rt": 411.52708373292523,
  "timestamp": 1468341476.981735,
  "x": 0.05714285714285714,
  "trial": 8,
  "y": 0.03620536057679653,
  "participant": 12
 },
 {
  "stimulus": 3,
  "rt": 603.8019735110867,
  "timestamp": 1468341476.981737,
  "x": 0.08571428571428572,
  "trial": 28,
  "y": 0.014882722487417023,
  "participant": 12
 },
 {
  "stimulus": 4,
  "rt": 878.6803119553728,
  "timestamp": 1468341476.981738,
  "x": 0.11428571428571428,
  "trial": 27,
  "y": 0.03259369888351395,
  "participant": 12
 },
 {
  "stimulus": 5,
  "rt": 658.8217435487742,
  "timestamp": 1468341476.981739,
  "x": 0.14285714285714285,
  "trial": 0,
  "y": 0.07325433729872625,
  "participant": 12
 },
 {
  "stimulus": 6,
  "rt": 748.2039868645473,
  "timestamp": 1468341476.98174,
  "x": 0.17142857142857143,
  "trial": 32,
  "y": 0.07749567574718025,
  "participant": 12
 },
 {
  "stimulus": 7,
  "rt": 524.5653213680799,
  "timestamp": 1468341476.981742,
  "x": 0.19999999999999998,
  "trial": 30,
  "y": 0.22965764785148088,
  "participant": 12
 },
 {
  "stimulus": 8,
  "rt": 954.7273522990833,
  "timestamp": 1468341476.981743,
  "x": 0.22857142857142856,
  "trial": 24,
  "y": 0.09423385025925884,
  "participant": 12
 },
 {
  "stimulus": 9,
  "rt": 808.0025443088991,
  "timestamp": 1468341476.981744,
  "x": 0.2571428571428571,
  "trial": 13,
  "y": 0.016101165597983975,
  "participant": 12
 },
 {
  "stimulus": 10,
  "rt": 500.59659705290073,
  "timestamp": 1468341476.981745,
  "x": 0.2857142857142857,
  "trial": 11,
  "y": 0.035467482756687804,
  "participant": 12
 },
 {
  "stimulus": 11,
  "rt": 704.1317260253658,
  "timestamp": 1468341476.981746,
  "x": 0.3142857142857143,
  "trial": 25,
  "y": 0.37588860392243895,
  "participant": 12
 },
 {
  "stimulus": 12,
  "rt": 619.5880648925327,
  "timestamp": 1468341476.981748,
  "x": 0.34285714285714286,
  "trial": 31,
  "y": 0.12980186650363287,
  "participant": 12
 },
 {
  "stimulus": 13,
  "rt": 916.9297732594537,
  "timestamp": 1468341476.981749,
  "x": 0.37142857142857144,
  "trial": 34,
  "y": 0.28922003572976035,
  "participant": 12
 },
 {
  "stimulus": 14,
  "rt": 416.4739810308401,
  "timestamp": 1468341476.98175,
  "x": 0.39999999999999997,
  "trial": 26,
  "y": 0.13570207683330543,
  "participant": 12
 },
 {
  "stimulus": 15,
  "rt": 278.7974774848681,
  "timestamp": 1468341476.981751,
  "x": 0.42857142857142855,
  "trial": 4,
  "y": 0.5711625027128691,
  "participant": 12
 },
 {
  "stimulus": 16,
  "rt": 376.43054209777193,
  "timestamp": 1468341476.981752,
  "x": 0.45714285714285713,
  "trial": 23,
  "y": 0.30716566732490447,
  "participant": 12
 },
 {
  "stimulus": 17,
  "rt": 514.0107241361088,
  "timestamp": 1468341476.981755,
  "x": 0.4857142857142857,
  "trial": 10,
  "y": 0.788390527572805,
  "participant": 12
 },
 {
  "stimulus": 18,
  "rt": 856.5258133512202,
  "timestamp": 1468341476.981757,
  "x": 0.5142857142857142,
  "trial": 19,
  "y": 0.40386731362450246,
  "participant": 12
 },
 {
  "stimulus": 19,
  "rt": 420.39632141752844,
  "timestamp": 1468341476.981758,
  "x": 0.5428571428571428,
  "trial": 12,
  "y": 0.8244372965738368,
  "participant": 12
 },
 {
  "stimulus": 20,
  "rt": 680.4481952010509,
  "timestamp": 1468341476.981759,
  "x": 0.5714285714285714,
  "trial": 17,
  "y": 0.8003817196946352,
  "participant": 12
 },
 {
  "stimulus": 21,
  "rt": 709.7399350567229,
  "timestamp": 1468341476.98176,
  "x": 0.6,
  "trial": 29,
  "y": 0.5689597191759641,
  "participant": 12
 },
 {
  "stimulus": 22,
  "rt": 540.860129014907,
  "timestamp": 1468341476.981761,
  "x": 0.6285714285714286,
  "trial": 22,
  "y": 0.9156539568129192,
  "participant": 12
 },
 {
  "stimulus": 23,
  "rt": 246.70921014997913,
  "timestamp": 1468341476.981762,
  "x": 0.6571428571428571,
  "trial": 7,
  "y": 0.6614570489499908,
  "participant": 12
 },
 {
  "stimulus": 24,
  "rt": 809.493875118129,
  "timestamp": 1468341476.981764,
  "x": 0.6857142857142857,
  "trial": 20,
  "y": 0.7378213669716482,
  "participant": 12
 },
 {
  "stimulus": 25,
  "rt": 465.42955966337115,
  "timestamp": 1468341476.981765,
  "x": 0.7142857142857143,
  "trial": 6,
  "y": 0.9460668764890326,
  "participant": 12
 },
 {
  "stimulus": 26,
  "rt": 529.4392170152009,
  "timestamp": 1468341476.981766,
  "x": 0.7428571428571429,
  "trial": 33,
  "y": 0.8585415966307387,
  "participant": 12
 },
 {
  "stimulus": 27,
  "rt": 496.3287238702719,
  "timestamp": 1468341476.981767,
  "x": 0.7714285714285714,
  "trial": 3,
  "y": 0.8928742759784815,
  "participant": 12
 },
 {
  "stimulus": 28,
  "rt": 714.8248845582594,
  "timestamp": 1468341476.981768,
  "x": 0.7999999999999999,
  "trial": 2,
  "y": 0.9343859233344728,
  "participant": 12
 },
 {
  "stimulus": 29,
  "rt": 272.3631099384749,
  "timestamp": 1468341476.98177,
  "x": 0.8285714285714285,
  "trial": 16,
  "y": 0.9076727936247843,
  "participant": 12
 },
 {
  "stimulus": 30,
  "rt": 624.7104573734125,
  "timestamp": 1468341476.981771,
  "x": 0.8571428571428571,
  "trial": 14,
  "y": 0.9902087144306341,
  "participant": 12
 },
 {
  "stimulus": 31,
  "rt": 191.20678203149453,
  "timestamp": 1468341476.981772,
  "x": 0.8857142857142857,
  "trial": 1,
  "y": 0.9886335483403289,
  "participant": 12
 },
 {
  "stimulus": 32,
  "rt": 979.6480596444344,
  "timestamp": 1468341476.981773,
  "x": 0.9142857142857143,
  "trial": 5,
  "y": 0.9832675028444322,
  "participant": 12
 },
 {
  "stimulus": 33,
  "rt": 652.6238371248496,
  "timestamp": 1468341476.981774,
  "x": 0.9428571428571428,
  "trial": 21,
  "y": 0.9868770047361676,
  "participant": 12
 },
 {
  "stimulus": 34,
  "rt": 488.19148301698596,
  "timestamp": 1468341476.981775,
  "x": 0.9714285714285714,
  "trial": 35,
  "y": 0.9943162338266804,
  "participant": 12
 },
 {
  "stimulus": 35,
  "rt": 324.75876719670384,
  "timestamp": 1468341476.981777,
  "x": 1.0,
  "trial": 15,
  "y": 0.9988482669802918,
  "participant": 12
 },
 {
  "stimulus": 0,
  "rt": 706.9221662257743,
  "timestamp": 1468341476.981778,
  "x": 0.0,
  "trial": 32,
  "y": 0.015843428431897934,
  "participant": 13
 },
 {
  "stimulus": 1,
  "rt": 495.0850790444251,
  "timestamp": 1468341476.98178,
  "x": 0.02857142857142857,
  "trial": 12,
  "y": 0.00536359468252868,
  "participant": 13
 },
 {
  "stimulus": 2,
  "rt": 420.01641493834717,
  "timestamp": 1468341476.981781,
  "x": 0.05714285714285714,
  "trial": 22,
  "y": 0.02530426928424414,
  "participant": 13
 },
 {
  "stimulus": 3,
  "rt": 580.8934960797196,
  "timestamp": 1468341476.981782,
  "x": 0.08571428571428572,
  "trial": 25,
  "y": 0.013903298434655473,
  "participant": 13
 },
 {
  "stimulus": 4,
  "rt": 911.1965074932017,
  "timestamp": 1468341476.981783,
  "x": 0.11428571428571428,
  "trial": 24,
  "y": 0.017020980591261118,
  "participant": 13
 },
 {
  "stimulus": 5,
  "rt": 652.1795386082813,
  "timestamp": 1468341476.981784,
  "x": 0.14285714285714285,
  "trial": 7,
  "y": 0.15381893517239684,
  "participant": 13
 },
 {
  "stimulus": 6,
  "rt": 729.9030013944434,
  "timestamp": 1468341476.981786,
  "x": 0.17142857142857143,
  "trial": 14,
  "y": 0.0240177283419234,
  "participant": 13
 },
 {
  "stimulus": 7,
  "rt": 557.7759825351052,
  "timestamp": 1468341476.981787,
  "x": 0.19999999999999998,
  "trial": 16,
  "y": 0.029910320996895588,
  "participant": 13
 },
 {
  "stimulus": 8,
  "rt": 948.2058165964885,
  "timestamp": 1468341476.981788,
  "x": 0.22857142857142856,
  "trial": 6,
  "y": 0.009318503850251677,
  "participant": 13
 },
 {
  "stimulus": 9,
  "rt": 820.073981861513,
  "timestamp": 1468341476.981789,
  "x": 0.2571428571428571,
  "trial": 2,
  "y": 0.021229601697632626,
  "participant": 13
 },
 {
  "stimulus": 10,
  "rt": 479.78768464291124,
  "timestamp": 1468341476.98179,
  "x": 0.2857142857142857,
  "trial": 26,
  "y": 0.1555479115319423,
  "participant": 13
 },
 {
  "stimulus": 11,
  "rt": 703.278155766075,
  "timestamp": 1468341476.981792,
  "x": 0.3142857142857143,
  "trial": 20,
  "y": 0.07228796252403952,
  "participant": 13
 },
 {
  "stimulus": 12,
  "rt": 635.6131524519932,
  "timestamp": 1468341476.981793,
  "x": 0.34285714285714286,
  "trial": 27,
  "y": 0.25807177368479883,
  "participant": 13
 },
 {
  "stimulus": 13,
  "rt": 889.9204274255341,
  "timestamp": 1468341476.981794,
  "x": 0.37142857142857144,
  "trial": 0,
  "y": 0.08312807242804209,
  "participant": 13
 },
 {
  "stimulus": 14,
  "rt": 420.948096386162,
  "timestamp": 1468341476.981795,
  "x": 0.39999999999999997,
  "trial": 10,
  "y": 0.1458771973999312,
  "participant": 13
 },
 {
  "stimulus": 15,
  "rt": 293.82176987361464,
  "timestamp": 1468341476.981796,
  "x": 0.42857142857142855,
  "trial": 9,
  "y": 0.49007255299840025,
  "participant": 13
 },
 {
  "stimulus": 16,
  "rt": 335.0426065527954,
  "timestamp": 1468341476.981798,
  "x": 0.45714285714285713,
  "trial": 21,
  "y": 0.737365613280541,
  "participant": 13
 },
 {
  "stimulus": 17,
  "rt": 521.1591682610115,
  "timestamp": 1468341476.981799,
  "x": 0.4857142857142857,
  "trial": 1,
  "y": 0.6105478494449913,
  "participant": 13
 },
 {
  "stimulus": 18,
  "rt": 885.0344706617182,
  "timestamp": 1468341476.9818,
  "x": 0.5142857142857142,
  "trial": 11,
  "y": 0.7926030574859446,
  "participant": 13
 },
 {
  "stimulus": 19,
  "rt": 421.43353701285764,
  "timestamp": 1468341476.981801,
  "x": 0.5428571428571428,
  "trial": 13,
  "y": 0.894085154983552,
  "participant": 13
 },
 {
  "stimulus": 20,
  "rt": 706.5940224282565,
  "timestamp": 1468341476.981802,
  "x": 0.5714285714285714,
  "trial": 33,
  "y": 0.8525037514073831,
  "participant": 13
 },
 {
  "stimulus": 21,
  "rt": 705.8253242233192,
  "timestamp": 1468341476.981804,
  "x": 0.6,
  "trial": 18,
  "y": 0.5203786950408191,
  "participant": 13
 },
 {
  "stimulus": 22,
  "rt": 541.7069408384958,
  "timestamp": 1468341476.981805,
  "x": 0.6285714285714286,
  "trial": 30,
  "y": 0.7650142475031068,
  "participant": 13
 },
 {
  "stimulus": 23,
  "rt": 251.9951003776897,
  "timestamp": 1468341476.981806,
  "x": 0.6571428571428571,
  "trial": 28,
  "y": 0.9003952735638726,
  "participant": 13
 },
 {
  "stimulus": 24,
  "rt": 802.5031220979516,
  "timestamp": 1468341476.981807,
  "x": 0.6857142857142857,
  "trial": 4,
  "y": 0.8088099415819338,
  "participant": 13
 },
 {
  "stimulus": 25,
  "rt": 426.1633644860119,
  "timestamp": 1468341476.981808,
  "x": 0.7142857142857143,
  "trial": 34,
  "y": 0.9305263713579691,
  "participant": 13
 },
 {
  "stimulus": 26,
  "rt": 522.66891823946,
  "timestamp": 1468341476.98181,
  "x": 0.7428571428571429,
  "trial": 8,
  "y": 0.7004444410183542,
  "participant": 13
 },
 {
  "stimulus": 27,
  "rt": 494.1890238892112,
  "timestamp": 1468341476.981811,
  "x": 0.7714285714285714,
  "trial": 35,
  "y": 0.8682596350743406,
  "participant": 13
 },
 {
  "stimulus": 28,
  "rt": 711.1372912981147,
  "timestamp": 1468341476.981812,
  "x": 0.7999999999999999,
  "trial": 15,
  "y": 0.9714984096844949,
  "participant": 13
 },
 {
  "stimulus": 29,
  "rt": 268.50271060872797,
  "timestamp": 1468341476.981813,
  "x": 0.8285714285714285,
  "trial": 31,
  "y": 0.7405113071922097,
  "participant": 13
 },
 {
  "stimulus": 30,
  "rt": 627.4713929247212,
  "timestamp": 1468341476.981814,
  "x": 0.8571428571428571,
  "trial": 19,
  "y": 0.9215587121402605,
  "participant": 13
 },
 {
  "stimulus": 31,
  "rt": 227.8081190617336,
  "timestamp": 1468341476.981815,
  "x": 0.8857142857142857,
  "trial": 29,
  "y": 0.978946796020633,
  "participant": 13
 },
 {
  "stimulus": 32,
  "rt": 985.9172542285826,
  "timestamp": 1468341476.981817,
  "x": 0.9142857142857143,
  "trial": 3,
  "y": 0.9185990405956413,
  "participant": 13
 },
 {
  "stimulus": 33,
  "rt": 679.3586542519014,
  "timestamp": 1468341476.981818,
  "x": 0.9428571428571428,
  "trial": 5,
  "y": 0.9888564952384694,
  "participant": 13
 },
 {
  "stimulus": 34,
  "rt": 517.856543143572,
  "timestamp": 1468341476.981819,
  "x": 0.9714285714285714,
  "trial": 17,
  "y": 0.980444284495729,
  "participant": 13
 },
 {
  "stimulus": 35,
  "rt": 311.6998002321771,
  "timestamp": 1468341476.98182,
  "x": 1.0,
  "trial": 23,
  "y": 0.9910614699111812,
  "participant": 13
 },
 {
  "stimulus": 0,
  "rt": 709.549688840632,
  "timestamp": 1468341476.981822,
  "x": 0.0,
  "trial": 11,
  "y": 0.005173685566940065,
  "participant": 14
 },
 {
  "stimulus": 1,
  "rt": 516.7375444486944,
  "timestamp": 1468341476.981823,
  "x": 0.02857142857142857,
  "trial": 23,
  "y": 0.010718661015557478,
  "participant": 14
 },
 {
  "stimulus": 2,
  "rt": 399.61048988941036,
  "timestamp": 1468341476.981824,
  "x": 0.05714285714285714,
  "trial": 12,
  "y": 0.006743832884727825,
  "participant": 14
 },
 {
  "stimulus": 3,
  "rt": 594.5200604612885,
  "timestamp": 1468341476.981826,
  "x": 0.08571428571428572,
  "trial": 9,
  "y": 0.017070748924440538,
  "participant": 14
 },
 {
  "stimulus": 4,
  "rt": 906.652703746479,
  "timestamp": 1468341476.981827,
  "x": 0.11428571428571428,
  "trial": 0,
  "y": 0.011449432204007815,
  "participant": 14
 },
 {
  "stimulus": 5,
  "rt": 664.005815868544,
  "timestamp": 1468341476.981828,
  "x": 0.14285714285714285,
  "trial": 13,
  "y": 0.0467369836336225,
  "participant": 14
 },
 {
  "stimulus": 6,
  "rt": 734.2667138001126,
  "timestamp": 1468341476.981829,
  "x": 0.17142857142857143,
  "trial": 8,
  "y": 0.16911602133504103,
  "participant": 14
 },
 {
  "stimulus": 7,
  "rt": 535.737325809289,
  "timestamp": 1468341476.98183,
  "x": 0.19999999999999998,
  "trial": 32,
  "y": 0.05715525887247903,
  "participant": 14
 },
 {
  "stimulus": 8,
  "rt": 963.9120328519916,
  "timestamp": 1468341476.981832,
  "x": 0.22857142857142856,
  "trial": 26,
  "y": 0.07280248930233847,
  "participant": 14
 },
 {
  "stimulus": 9,
  "rt": 819.4397023167165,
  "timestamp": 1468341476.981833,
  "x": 0.2571428571428571,
  "trial": 3,
  "y": 0.02678978628485374,
  "participant": 14
 },
 {
  "stimulus": 10,
  "rt": 488.66695130850064,
  "timestamp": 1468341476.981834,
  "x": 0.2857142857142857,
  "trial": 18,
  "y": 0.19007992671780596,
  "participant": 14
 },
 {
  "stimulus": 11,
  "rt": 713.5464412489995,
  "timestamp": 1468341476.981835,
  "x": 0.3142857142857143,
  "trial": 16,
  "y": 0.06816591073744967,
  "participant": 14
 },
 {
  "stimulus": 12,
  "rt": 626.8275833748144,
  "timestamp": 1468341476.981836,
  "x": 0.34285714285714286,
  "trial": 6,
  "y": 0.08468918660175363,
  "participant": 14
 },
 {
  "stimulus": 13,
  "rt": 963.3593872882079,
  "timestamp": 1468341476.981838,
  "x": 0.37142857142857144,
  "trial": 4,
  "y": 0.3255734175795317,
  "participant": 14
 },
 {
  "stimulus": 14,
  "rt": 440.15114792542965,
  "timestamp": 1468341476.981839,
  "x": 0.39999999999999997,
  "trial": 21,
  "y": 0.3059842009649018,
  "participant": 14
 },
 {
  "stimulus": 15,
  "rt": 261.90220346937963,
  "timestamp": 1468341476.98184,
  "x": 0.42857142857142855,
  "trial": 30,
  "y": 0.5969781505881891,
  "participant": 14
 },
 {
  "stimulus": 16,
  "rt": 346.13470629255266,
  "timestamp": 1468341476.981841,
  "x": 0.45714285714285713,
  "trial": 10,
  "y": 0.733861896707412,
  "participant": 14
 },
 {
  "stimulus": 17,
  "rt": 520.4813910410973,
  "timestamp": 1468341476.981842,
  "x": 0.4857142857142857,
  "trial": 5,
  "y": 0.3356949256680965,
  "participant": 14
 },
 {
  "stimulus": 18,
  "rt": 879.1148328053573,
  "timestamp": 1468341476.981843,
  "x": 0.5142857142857142,
  "trial": 34,
  "y": 0.5673958576975151,
  "participant": 14
 },
 {
  "stimulus": 19,
  "rt": 433.7649841487187,
  "timestamp": 1468341476.981845,
  "x": 0.5428571428571428,
  "trial": 27,
  "y": 0.8992561361700105,
  "participant": 14
 },
 {
  "stimulus": 20,
  "rt": 727.5558257412116,
  "timestamp": 1468341476.981846,
  "x": 0.5714285714285714,
  "trial": 15,
  "y": 0.8430137391144175,
  "participant": 14
 },
 {
  "stimulus": 21,
  "rt": 698.9548683578881,
  "timestamp": 1468341476.981847,
  "x": 0.6,
  "trial": 24,
  "y": 0.8472313419722737,
  "participant": 14
 },
 {
  "stimulus": 22,
  "rt": 530.8596429096212,
  "timestamp": 1468341476.981848,
  "x": 0.6285714285714286,
  "trial": 25,
  "y": 0.9303397735010458,
  "participant": 14
 },
 {
  "stimulus": 23,
  "rt": 237.73768765120656,
  "timestamp": 1468341476.981849,
  "x": 0.6571428571428571,
  "trial": 1,
  "y": 0.7244863210383315,
  "participant": 14
 },
 {
  "stimulus": 24,
  "rt": 809.1116060879717,
  "timestamp": 1468341476.981851,
  "x": 0.6857142857142857,
  "trial": 2,
  "y": 0.9237008359566063,
  "participant": 14
 },
 {
  "stimulus": 25,
  "rt": 459.08358945114884,
  "timestamp": 1468341476.981852,
  "x": 0.7142857142857143,
  "trial": 31,
  "y": 0.9721346551482618,
  "participant": 14
 },
 {
  "stimulus": 26,
  "rt": 532.7851569015539,
  "timestamp": 1468341476.981853,
  "x": 0.7428571428571429,
  "trial": 14,
  "y": 0.9828672750140447,
  "participant": 14
 },
 {
  "stimulus": 27,
  "rt": 485.5438964685911,
  "timestamp": 1468341476.981854,
  "x": 0.7714285714285714,
  "trial": 17,
  "y": 0.8708056431395168,
  "participant": 14
 },
 {
  "stimulus": 28,
  "rt": 742.1997061837618,
  "timestamp": 1468341476.981855,
  "x": 0.7999999999999999,
  "trial": 7,
  "y": 0.9398187271981554,
  "participant": 14
 },
 {
  "stimulus": 29,
  "rt": 260.3836672711789,
  "timestamp": 1468341476.981857,
  "x": 0.8285714285714285,
  "trial": 35,
  "y": 0.9751183789983916,
  "participant": 14
 },
 {
  "stimulus": 30,
  "rt": 666.1423599764382,
  "timestamp": 1468341476.981858,
  "x": 0.8571428571428571,
  "trial": 20,
  "y": 0.9638211560677742,
  "participant": 14
 },
 {
  "stimulus": 31,
  "rt": 219.48307559056843,
  "timestamp": 1468341476.981859,
  "x": 0.8857142857142857,
  "trial": 33,
  "y": 0.9696849406308781,
  "participant": 14
 },
 {
  "stimulus": 32,
  "rt": 1002.3061403368888,
  "timestamp": 1468341476.98186,
  "x": 0.9142857142857143,
  "trial": 19,
  "y": 0.9920520257869995,
  "participant": 14
 },
 {
  "stimulus": 33,
  "rt": 678.4258269640951,
  "timestamp": 1468341476.981861,
  "x": 0.9428571428571428,
  "trial": 29,
  "y": 0.9832943486111312,
  "participant": 14
 },
 {
  "stimulus": 34,
  "rt": 506.8062213417878,
  "timestamp": 1468341476.981863,
  "x": 0.9714285714285714,
  "trial": 22,
  "y": 0.9491348476271755,
  "participant": 14
 },
 {
  "stimulus": 35,
  "rt": 323.8612395676882,
  "timestamp": 1468341476.981864,
  "x": 1.0,
  "trial": 28,
  "y": 0.9953296841311022,
  "participant": 14
 },
 {
  "stimulus": 0,
  "rt": 712.9586143012975,
  "timestamp": 1468341476.981865,
  "x": 0.0,
  "trial": 17,
  "y": 0.0043879619504456615,
  "participant": 15
 },
 {
  "stimulus": 1,
  "rt": 521.8565417471389,
  "timestamp": 1468341476.981867,
  "x": 0.02857142857142857,
  "trial": 35,
  "y": 0.004295781728580878,
  "participant": 15
 },
 {
  "stimulus": 2,
  "rt": 404.02614243636674,
  "timestamp": 1468341476.981868,
  "x": 0.05714285714285714,
  "trial": 33,
  "y": 0.0024866984434707296,
  "participant": 15
 },
 {
  "stimulus": 3,
  "rt": 617.33436429136,
  "timestamp": 1468341476.981869,
  "x": 0.08571428571428572,
  "trial": 7,
  "y": 0.041925364696931595,
  "participant": 15
 },
 {
  "stimulus": 4,
  "rt": 900.2640855191987,
  "timestamp": 1468341476.98187,
  "x": 0.11428571428571428,
  "trial": 31,
  "y": 0.002273280452860716,
  "participant": 15
 },
 {
  "stimulus": 5,
  "rt": 664.5522901844924,
  "timestamp": 1468341476.981872,
  "x": 0.14285714285714285,
  "trial": 22,
  "y": 0.005113410376316718,
  "participant": 15
 },
 {
  "stimulus": 6,
  "rt": 704.8045062483372,
  "timestamp": 1468341476.981873,
  "x": 0.17142857142857143,
  "trial": 30,
  "y": 0.027610498950880958,
  "participant": 15
 },
 {
  "stimulus": 7,
  "rt": 571.5063310572306,
  "timestamp": 1468341476.981874,
  "x": 0.19999999999999998,
  "trial": 29,
  "y": 0.14541249389656835,
  "participant": 15
 },
 {
  "stimulus": 8,
  "rt": 973.284568180965,
  "timestamp": 1468341476.981875,
  "x": 0.22857142857142856,
  "trial": 12,
  "y": 0.19709037063610804,
  "participant": 15
 },
 {
  "stimulus": 9,
  "rt": 776.365557385838,
  "timestamp": 1468341476.981876,
  "x": 0.2571428571428571,
  "trial": 11,
  "y": 0.027026103374286774,
  "participant": 15
 },
 {
  "stimulus": 10,
  "rt": 494.1769139728792,
  "timestamp": 1468341476.981877,
  "x": 0.2857142857142857,
  "trial": 32,
  "y": 0.0894401992530912,
  "participant": 15
 },
 {
  "stimulus": 11,
  "rt": 720.0807262000783,
  "timestamp": 1468341476.981879,
  "x": 0.3142857142857143,
  "trial": 3,
  "y": 0.03332355842288819,
  "participant": 15
 },
 {
  "stimulus": 12,
  "rt": 638.0586585733345,
  "timestamp": 1468341476.98188,
  "x": 0.34285714285714286,
  "trial": 13,
  "y": 0.3634962086708191,
  "participant": 15
 },
 {
  "stimulus": 13,
  "rt": 924.8148918714786,
  "timestamp": 1468341476.981881,
  "x": 0.37142857142857144,
  "trial": 5,
  "y": 0.05939702752566963,
  "participant": 15
 },
 {
  "stimulus": 14,
  "rt": 404.4295938739682,
  "timestamp": 1468341476.981882,
  "x": 0.39999999999999997,
  "trial": 16,
  "y": 0.24173410163730602,
  "participant": 15
 },
 {
  "stimulus": 15,
  "rt": 275.917301803127,
  "timestamp": 1468341476.981883,
  "x": 0.42857142857142855,
  "trial": 28,
  "y": 0.5790069278037537,
  "participant": 15
 },
 {
  "stimulus": 16,
  "rt": 354.1681723801029,
  "timestamp": 1468341476.981885,
  "x": 0.45714285714285713,
  "trial": 15,
  "y": 0.3427675011938378,
  "participant": 15
 },
 {
  "stimulus": 17,
  "rt": 517.7574605808547,
  "timestamp": 1468341476.981886,
  "x": 0.4857142857142857,
  "trial": 27,
  "y": 0.7903942027233528,
  "participant": 15
 },
 {
  "stimulus": 18,
  "rt": 873.1799373813296,
  "timestamp": 1468341476.981887,
  "x": 0.5142857142857142,
  "trial": 2,
  "y": 0.32582021430169833,
  "participant": 15
 },
 {
  "stimulus": 19,
  "rt": 405.3269591813065,
  "timestamp": 1468341476.981888,
  "x": 0.5428571428571428,
  "trial": 9,
  "y": 0.6894955259900247,
  "participant": 15
 },
 {
  "stimulus": 20,
  "rt": 712.1239388088987,
  "timestamp": 1468341476.981889,
  "x": 0.5714285714285714,
  "trial": 24,
  "y": 0.8274366167467145,
  "participant": 15
 },
 {
  "stimulus": 21,
  "rt": 712.9161470541346,
  "timestamp": 1468341476.981891,
  "x": 0.6,
  "trial": 20,
  "y": 0.7027208785983888,
  "participant": 15
 },
 {
  "stimulus": 22,
  "rt": 546.4310369005896,
  "timestamp": 1468341476.981892,
  "x": 0.6285714285714286,
  "trial": 14,
  "y": 0.9353557967135347,
  "participant": 15
 },
 {
  "stimulus": 23,
  "rt": 236.04506609014558,
  "timestamp": 1468341476.981893,
  "x": 0.6571428571428571,
  "trial": 6,
  "y": 0.8927896451933678,
  "participant": 15
 },
 {
  "stimulus": 24,
  "rt": 758.9183709134398,
  "timestamp": 1468341476.981894,
  "x": 0.6857142857142857,
  "trial": 1,
  "y": 0.5547034703105066,
  "participant": 15
 },
 {
  "stimulus": 25,
  "rt": 444.0695238181296,
  "timestamp": 1468341476.981895,
  "x": 0.7142857142857143,
  "trial": 8,
  "y": 0.997765408716604,
  "participant": 15
 },
 {
  "stimulus": 26,
  "rt": 529.6402873159609,
  "timestamp": 1468341476.981897,
  "x": 0.7428571428571429,
  "trial": 4,
  "y": 0.9559430435860462,
  "participant": 15
 },
 {
  "stimulus": 27,
  "rt": 480.80314867195665,
  "timestamp": 1468341476.981898,
  "x": 0.7714285714285714,
  "trial": 10,
  "y": 0.9438334856019642,
  "participant": 15
 },
 {
  "stimulus": 28,
  "rt": 732.1753398256411,
  "timestamp": 1468341476.981899,
  "x": 0.7999999999999999,
  "trial": 21,
  "y": 0.8321842447031219,
  "participant": 15
 },
 {
  "stimulus": 29,
  "rt": 273.0059654924289,
  "timestamp": 1468341476.9819,
  "x": 0.8285714285714285,
  "trial": 18,
  "y": 0.966672668324347,
  "participant": 15
 },
 {
  "stimulus": 30,
  "rt": 644.7820135561893,
  "timestamp": 1468341476.981901,
  "x": 0.8571428571428571,
  "trial": 23,
  "y": 0.9573640421652183,
  "participant": 15
 },
 {
  "stimulus": 31,
  "rt": 205.6882293378342,
  "timestamp": 1468341476.981904,
  "x": 0.8857142857142857,
  "trial": 25,
  "y": 0.9890293070391354,
  "participant": 15
 },
 {
  "stimulus": 32,
  "rt": 987.6250172227936,
  "timestamp": 1468341476.981905,
  "x": 0.9142857142857143,
  "trial": 19,
  "y": 0.9891697995358294,
  "participant": 15
 },
 {
  "stimulus": 33,
  "rt": 687.3327134276492,
  "timestamp": 1468341476.981906,
  "x": 0.9428571428571428,
  "trial": 0,
  "y": 0.9981330507693328,
  "participant": 15
 },
 {
  "stimulus": 34,
  "rt": 481.876440042241,
  "timestamp": 1468341476.981907,
  "x": 0.9714285714285714,
  "trial": 26,
  "y": 0.9922826510072729,
  "participant": 15
 },
 {
  "stimulus": 35,
  "rt": 330.43485723307725,
  "timestamp": 1468341476.981909,
  "x": 1.0,
  "trial": 34,
  "y": 0.9959842426616347,
  "participant": 15
 },
 {
  "stimulus": 0,
  "rt": 709.3586907433051,
  "timestamp": 1468341476.98191,
  "x": 0.0,
  "trial": 14,
